timestamp,elapsed_seconds,io2,io3, resistance,eda,ir,bpm,accel_x,accel_y,accel_z
1752796485.873,1507.068,0.30586,1.88034,202558.00,4.93685,113377,42,-664.0000,-103.0000,-4026.0000
1752796486.048,1507.243,0.30769,1.87912,203024.00,4.92551,113430,42,-674.0000,-87.0000,-4036.0000
1752796486.185,1507.380,0.30830,1.87912,204195.00,4.89726,113456,42,-672.0000,-86.0000,-4033.0000
1752796486.368,1507.563,0.30830,1.87973,203728.00,4.90850,113386,42,-671.0000,-84.0000,-4046.0000
1752796486.499,1507.694,0.30891,1.87912,204116.00,4.89916,113296,42,-676.0000,-80.0000,-4045.0000
1752796486.655,1507.850,0.30891,1.87912,204354.00,4.89345,113309,42,-673.0000,-84.0000,-4034.0000
1752796486.730,1507.925,0.31013,1.87790,204354.00,4.89345,113313,42,-673.0000,-84.0000,-4034.0000
1752796486.838,1508.033,0.31074,1.87790,205451.00,4.86732,113354,42,-662.0000,-70.0000,-4034.0000
1752796486.963,1508.158,0.31074,1.87851,205531.00,4.86543,113366,42,-678.0000,-76.0000,-4038.0000
1752796487.119,1508.314,0.31013,1.87729,206471.00,4.84328,113484,42,-672.0000,-89.0000,-4042.0000
1752796487.249,1508.444,0.31074,1.87729,206310.00,4.84705,113549,42,-654.0000,-77.0000,-4039.0000
1752796487.396,1508.591,0.31074,1.87607,206471.00,4.84328,113592,42,-672.0000,-87.0000,-4037.0000
1752796487.526,1508.721,0.31136,1.87668,207737.00,4.83226,113354,42,-689.0000,-83.0000,-4046.0000
1752796487.610,1508.805,0.31197,1.87485,207737.00,4.81377,113325,42,-669.0000,-79.0000,-4036.0000
1752796487.753,1508.948,0.31197,1.87424,208046.00,4.80661,113375,42,-689.0000,-109.0000,-4027.0000
1752796487.889,1509.084,0.31319,1.87546,208128.00,4.80473,113410,42,-667.0000,-86.0000,-4034.0000
1752796488.008,1509.203,0.31319,1.87485,208519.00,4.79573,113441,42,-656.0000,-90.0000,-4050.0000
1752796488.123,1509.318,0.31380,1.87241,209318.00,4.77740,113488,42,-664.0000,-91.0000,-4029.0000
1752796488.265,1509.460,0.31319,1.87302,210184.00,4.75773,113568,42,-667.0000,-72.0000,-4033.0000
1752796488.369,1509.564,0.31380,1.87179,210658.00,4.78823,113704,42,-672.0000,-69.0000,-4027.0000
1752796488.472,1509.667,0.31441,1.87424,210658.00,4.74702,113728,42,-677.0000,-84.0000,-4032.0000
1752796488.618,1509.813,0.31319,1.87302,210679.00,4.79347,113461,42,-674.0000,-90.0000,-4033.0000
1752796488.709,1509.904,0.31563,1.87363,210679.00,4.74655,113419,42,-672.0000,-82.0000,-4032.0000
1752796488.819,1510.014,0.31563,1.87241,210348.00,4.75401,113477,42,-679.0000,-88.0000,-4038.0000
1752796488.928,1510.123,0.31624,1.87057,211381.00,4.73078,113482,42,-664.0000,-87.0000,-4035.0000
1752796489.052,1510.247,0.31624,1.87179,211940.00,4.71831,113535,42,-661.0000,-81.0000,-4043.0000
1752796489.205,1510.400,0.31563,1.87057,211857.00,4.74144,113617,42,-679.0000,-86.0000,-4047.0000
1752796489.294,1510.489,0.29976,1.88584,211857.00,4.72016,113647,42,-679.0000,-86.0000,-4047.0000
1752796489.471,1510.666,0.30098,1.88584,198689.00,5.03297,113747,42,-659.0000,-88.0000,-4052.0000
1752796489.627,1510.822,0.30159,1.88339,196920.00,5.07819,113781,42,-678.0000,-81.0000,-4041.0000
1752796489.811,1511.006,0.30403,1.88523,199073.00,4.99614,113457,42,-670.0000,-84.0000,-4051.0000
1752796489.915,1511.110,0.31013,1.87790,199073.00,5.02327,113500,42,-663.0000,-84.0000,-4046.0000
1752796490.029,1511.224,0.31197,1.87607,204513.00,4.88965,113535,42,-668.0000,-92.0000,-4044.0000
1752796490.161,1511.356,0.31258,1.87485,207103.00,4.82850,113560,42,-667.0000,-81.0000,-4032.0000
1752796490.307,1511.502,0.31380,1.87179,208128.00,4.80473,113578,42,-672.0000,-83.0000,-4043.0000
1752796490.485,1511.680,0.31441,1.87424,210658.00,4.74702,113635,42,-672.0000,-75.0000,-4049.0000
1752796490.589,1511.784,0.31502,1.87241,209154.00,4.78114,113674,42,-670.0000,-91.0000,-4032.0000
1752796490.758,1511.953,0.31441,1.87241,209073.00,4.78301,113754,42,-656.0000,-94.0000,-4039.0000
1752796490.915,1512.110,0.31258,1.87241,209710.00,4.76848,113846,42,-660.0000,-70.0000,-4020.0000
1752796491.051,1512.246,0.31258,1.87607,209628.00,4.77035,113561,42,-683.0000,-75.0000,-4032.0000
1752796491.224,1512.419,0.32173,1.86630,208128.00,4.80473,113541,42,-671.0000,-87.0000,-4044.0000
1752796491.329,1512.524,0.31380,1.87363,213931.00,4.67439,113591,42,-671.0000,-87.0000,-4044.0000
1752796491.523,1512.718,0.31319,1.87363,210823.00,4.77927,113697,42,-681.0000,-83.0000,-4030.0000
1752796491.625,1512.820,0.31685,1.87179,210823.00,4.74330,113778,42,-653.0000,-90.0000,-4049.0000
1752796491.763,1512.958,0.31563,1.87118,211381.00,4.73772,113848,42,-669.0000,-81.0000,-4042.0000
1752796491.855,1513.050,0.31441,1.87118,211381.00,4.73078,113863,42,-669.0000,-81.0000,-4042.0000
1752796491.991,1513.186,0.30830,1.87973,211215.00,4.73450,113617,42,-676.0000,-91.0000,-4046.0000
1752796492.194,1513.389,0.30586,1.87973,201782.00,4.95582,113572,42,-669.0000,-94.0000,-4037.0000
1752796492.341,1513.536,0.31380,1.87179,201395.00,4.96536,113585,42,-689.0000,-100.0000,-4042.0000
1752796492.538,1513.733,0.29915,1.88523,210658.00,4.74702,113641,42,-673.0000,-82.0000,-4048.0000
1752796492.684,1513.879,0.28388,1.90354,187869.00,5.32284,113710,42,-668.0000,-83.0000,-4045.0000
1752796492.824,1514.019,0.28449,1.90354,183415.00,5.45212,113739,42,-663.0000,-82.0000,-4034.0000
1752796492.958,1514.153,0.29121,1.89744,183245.00,5.45716,113801,42,-672.0000,-83.0000,-4033.0000
1752796493.119,1514.314,0.28999,1.89683,188821.00,5.29601,113905,42,-664.0000,-86.0000,-4044.0000
1752796493.251,1514.446,0.28632,1.90232,184446.00,5.42161,113608,42,-668.0000,-101.0000,-4045.0000
1752796493.374,1514.569,0.29243,1.89866,183245.00,5.45716,113567,42,-669.0000,-74.0000,-4050.0000
1752796493.513,1514.708,0.29915,1.88889,197919.00,5.23771,113598,42,-669.0000,-97.0000,-4041.0000
1752796493.622,1514.817,0.30769,1.88095,197919.00,5.05257,113629,42,-672.0000,-93.0000,-4033.0000
1752796493.769,1514.964,0.30830,1.88095,202793.00,4.93111,113876,42,-658.0000,-91.0000,-4043.0000
1752796493.927,1515.122,0.30830,1.87973,202872.00,4.92920,113765,42,-673.0000,-88.0000,-4045.0000
1752796494.041,1515.236,0.30769,1.87851,204823.00,4.88226,113939,42,-667.0000,-80.0000,-4031.0000
1752796494.151,1515.346,0.30830,1.87851,204663.00,4.88606,114292,42,-655.0000,-94.0000,-4053.0000
1752796494.271,1515.466,0.31685,1.87607,203807.00,4.90660,113519,42,-666.0000,-93.0000,-4025.0000
1752796494.382,1515.577,0.32418,1.86264,220826.00,4.52844,113565,42,-671.0000,-74.0000,-4026.0000
1752796494.524,1515.719,0.30769,1.87851,218715.00,4.57215,113546,42,-674.0000,-75.0000,-4038.0000
1752796494.669,1515.864,0.30769,1.87790,201317.00,4.96728,113635,42,-666.0000,-88.0000,-4038.0000
1752796494.784,1515.979,0.30830,1.87973,204743.00,4.88416,113684,42,-670.0000,-97.0000,-4042.0000
1752796494.902,1516.097,0.31013,1.87729,205531.00,4.86543,113771,42,-672.0000,-77.0000,-4040.0000
1752796495.013,1516.208,0.33272,1.85226,222994.00,4.48442,113883,42,-662.0000,-78.0000,-4039.0000
1752796495.166,1516.361,0.32784,1.85714,226020.00,4.42437,114019,42,-667.0000,-88.0000,-4039.0000
1752796495.276,1516.471,0.31136,1.87607,207413.00,4.82129,113564,42,-669.0000,-94.0000,-4059.0000
1752796495.412,1516.607,0.31074,1.87607,206081.00,4.85244,113576,42,-668.0000,-85.0000,-4034.0000
1752796495.530,1516.725,0.31136,1.87546,207494.00,4.80473,113674,42,-662.0000,-102.0000,-4043.0000
1752796495.651,1516.846,0.31136,1.87607,207494.00,4.81941,113723,42,-678.0000,-78.0000,-4040.0000
1752796495.765,1516.960,0.31319,1.87546,208437.00,4.80661,113778,42,-663.0000,-84.0000,-4046.0000
1752796495.953,1517.148,0.31319,1.87424,208437.00,4.79760,113839,42,-677.0000,-87.0000,-4047.0000
1752796496.045,1517.240,0.31319,1.87302,208046.00,4.80661,113914,42,-665.0000,-79.0000,-4043.0000
1752796496.188,1517.383,0.31197,1.87485,209628.00,4.77035,113563,42,-673.0000,-87.0000,-4047.0000
1752796496.318,1517.513,0.31258,1.87302,206713.00,4.83761,113581,42,-667.0000,-95.0000,-4042.0000
1752796496.512,1517.707,0.31319,1.87302,208763.00,4.79010,113630,42,-674.0000,-91.0000,-4031.0000
1752796496.636,1517.831,0.31380,1.87546,209400.00,4.77553,113727,42,-665.0000,-85.0000,-4046.0000
1752796496.808,1518.003,0.31563,1.87241,209318.00,4.81189,113744,42,-672.0000,-112.0000,-4045.0000
1752796496.891,1518.086,0.31624,1.87302,209318.00,4.77740,113860,42,-671.0000,-101.0000,-4053.0000
1752796497.008,1518.203,0.31502,1.86813,211464.00,4.72893,113956,42,-661.0000,-98.0000,-4048.0000
1752796497.147,1518.342,0.31502,1.87118,213679.00,4.67991,114027,42,-670.0000,-74.0000,-4035.0000
1752796497.313,1518.508,0.31502,1.87179,209956.00,4.76288,114038,42,-688.0000,-105.0000,-4047.0000
1752796497.420,1518.615,0.31624,1.87179,211154.00,4.73586,113706,42,-678.0000,-99.0000,-4043.0000
1752796497.572,1518.767,0.31746,1.86996,211547.00,4.72707,113673,42,-687.0000,-84.0000,-4030.0000
1752796497.711,1518.906,0.31685,1.86996,211940.00,4.71831,113711,42,-673.0000,-93.0000,-4045.0000
1752796497.887,1519.082,0.31563,1.86935,212416.00,4.70773,113779,42,-675.0000,-95.0000,-4033.0000
1752796498.016,1519.211,0.31746,1.86691,212809.00,4.69904,113842,42,-674.0000,-77.0000,-4043.0000
1752796498.148,1519.343,0.31807,1.86691,214972.00,4.65176,113953,42,-668.0000,-95.0000,-4042.0000
1752796498.266,1519.461,0.33333,1.85592,213874.00,4.67563,114032,42,-675.0000,-85.0000,-4033.0000
1752796498.392,1519.587,0.33089,1.85958,225982.00,4.42512,114088,42,-666.0000,-76.0000,-4026.0000
1752796498.500,1519.695,0.31990,1.86752,214100.00,4.41301,113727,42,-655.0000,-102.0000,-4028.0000
1752796498.586,1519.781,0.31929,1.86874,214100.00,4.67071,113817,42,-686.0000,-100.0000,-4031.0000
1752796498.675,1519.870,0.31868,1.86813,214747.00,4.65663,113848,42,-678.0000,-79.0000,-4039.0000
1752796498.795,1519.990,0.32112,1.86752,214184.00,4.66887,113896,42,-658.0000,-69.0000,-4042.0000
1752796498.941,1520.136,0.31990,1.86691,214268.00,4.66703,113988,42,-676.0000,-73.0000,-4035.0000
1752796499.128,1520.323,0.32051,1.86630,215057.00,4.64993,114084,42,-674.0000,-91.0000,-4042.0000
1752796499.272,1520.467,0.32295,1.86569,217405.00,4.63227,114173,42,-664.0000,-83.0000,-4050.0000
1752796499.392,1520.587,0.32112,1.86569,217405.00,4.59971,113771,42,-670.0000,-85.0000,-4038.0000
1752796499.601,1520.796,0.32173,1.86447,217181.00,4.60445,113779,42,-677.0000,-94.0000,-4043.0000
1752796499.746,1520.941,0.32173,1.86508,217405.00,4.59971,113792,42,-661.0000,-89.0000,-4045.0000
1752796499.848,1521.043,0.32112,1.86325,217009.00,4.60809,113929,42,-673.0000,-81.0000,-4031.0000
1752796499.978,1521.173,0.32234,1.86447,217663.00,4.59425,113937,42,-670.0000,-99.0000,-4056.0000
1752796500.209,1521.404,0.32295,1.86081,218145.00,4.58409,114032,42,-678.0000,-74.0000,-4036.0000
1752796500.377,1521.572,0.32479,1.86386,217663.00,4.59425,114118,42,-667.0000,-98.0000,-4043.0000
1752796500.552,1521.747,0.32295,1.86447,218145.00,4.58409,113762,42,-663.0000,-92.0000,-4056.0000
1752796500.674,1521.869,0.32357,1.86264,217577.00,4.59607,113715,42,-651.0000,-79.0000,-4050.0000
1752796500.873,1522.068,0.32295,1.86325,219111.00,4.56388,113750,42,-661.0000,-83.0000,-4050.0000
1752796500.991,1522.186,0.32479,1.86386,218318.00,4.58046,113779,42,-671.0000,-95.0000,-4042.0000
1752796501.088,1522.283,0.32357,1.86325,218715.00,4.59061,113835,42,-663.0000,-87.0000,-4032.0000
1752796501.171,1522.366,0.32357,1.86325,218715.00,4.57215,113909,42,-657.0000,-88.0000,-4024.0000
1752796501.274,1522.469,0.32357,1.86386,218318.00,4.58046,114002,42,-686.0000,-73.0000,-4031.0000
1752796501.418,1522.613,0.32357,1.86264,216475.00,4.56671,114082,42,-670.0000,-89.0000,-4035.0000
1752796501.529,1522.724,0.32540,1.86203,219111.00,4.61946,114202,42,-668.0000,-86.0000,-4032.0000
1752796501.622,1522.817,0.32540,1.86325,219111.00,4.56388,114163,42,-647.0000,-100.0000,-4035.0000
1752796501.787,1522.982,0.32479,1.86264,218975.00,4.56671,113827,42,-664.0000,-86.0000,-4030.0000
1752796501.884,1523.079,0.32540,1.86142,219285.00,4.56026,113779,42,-678.0000,-83.0000,-4029.0000
1752796502.003,1523.198,0.32540,1.86325,220429.00,4.53660,113867,42,-675.0000,-95.0000,-4053.0000
1752796502.140,1523.335,0.32540,1.86203,219857.00,4.54841,113890,42,-672.0000,-93.0000,-4052.0000
1752796502.251,1523.446,0.32540,1.86142,220914.00,4.52664,113999,42,-672.0000,-93.0000,-4052.0000
1752796502.417,1523.612,0.32601,1.86081,220516.00,4.53660,114069,42,-660.0000,-77.0000,-4030.0000
1752796502.540,1523.735,0.32601,1.86264,220516.00,4.53480,114170,42,-673.0000,-69.0000,-4045.0000
1752796502.659,1523.854,0.32540,1.86020,221090.00,4.52304,114256,42,-659.0000,-91.0000,-4034.0000
1752796502.926,1524.121,0.32662,1.86020,221400.00,4.51671,113790,42,-667.0000,-93.0000,-4037.0000
1752796503.040,1524.235,0.32723,1.86081,222328.00,4.49785,113848,42,-667.0000,-85.0000,-4041.0000
1752796503.202,1524.397,0.32784,1.85958,221178.00,4.52124,113892,42,-675.0000,-84.0000,-4043.0000
1752796503.330,1524.525,0.32662,1.85958,222905.00,4.48621,114019,42,-674.0000,-85.0000,-4036.0000
1752796503.423,1524.618,0.32662,1.85897,222062.00,4.50323,114109,42,-675.0000,-84.0000,-4030.0000
1752796503.574,1524.769,0.32845,1.85836,223304.00,4.49338,114157,42,-670.0000,-101.0000,-4027.0000
1752796503.646,1524.841,0.32784,1.85836,223304.00,4.47820,114250,42,-670.0000,-101.0000,-4027.0000
1752796503.943,1525.138,0.32906,1.85714,223304.00,4.47999,114059,42,-662.0000,-100.0000,-4049.0000
1752796504.023,1525.218,0.33028,1.85775,223304.00,4.47820,113871,42,-674.0000,-106.0000,-4046.0000
1752796504.180,1525.375,0.32906,1.85775,224060.00,4.46308,113902,42,-667.0000,-81.0000,-4037.0000
1752796504.369,1525.564,0.33150,1.85775,224060.00,4.46308,114018,42,-672.0000,-64.0000,-4028.0000
1752796504.479,1525.674,0.33089,1.85592,223482.00,4.44543,114063,42,-673.0000,-83.0000,-4030.0000
1752796504.640,1525.835,0.33028,1.85592,223482.00,4.47462,114161,42,-670.0000,-64.0000,-4039.0000
1752796504.801,1525.996,0.33028,1.85592,225530.00,4.46129,114254,42,-667.0000,-87.0000,-4037.0000
1752796504.875,1526.070,0.33089,1.85653,225530.00,4.43399,114332,42,-676.0000,-73.0000,-4033.0000
1752796504.999,1526.194,0.33150,1.85775,225130.00,4.44188,113835,42,-664.0000,-76.0000,-4040.0000
1752796505.112,1526.307,0.33089,1.85592,225400.00,4.43654,113849,42,-670.0000,-87.0000,-4036.0000
1752796505.248,1526.443,0.33272,1.85531,226693.00,4.41124,113878,42,-665.0000,-79.0000,-4040.0000
1752796505.415,1526.610,0.33150,1.85531,226693.00,4.41124,113943,42,-657.0000,-94.0000,-4033.0000
1752796505.565,1526.760,0.33211,1.85653,225310.00,4.43832,113995,42,-669.0000,-96.0000,-4027.0000
1752796505.673,1526.868,0.33211,1.85531,226292.00,4.41906,114048,42,-663.0000,-90.0000,-4041.0000
1752796505.783,1526.978,0.33150,1.85470,226784.00,4.40948,114167,42,-678.0000,-86.0000,-4039.0000
1752796505.917,1527.112,0.33272,1.85287,226693.00,4.41124,114245,42,-664.0000,-75.0000,-4045.0000
1752796506.051,1527.246,0.33272,1.85348,228353.00,4.37918,114161,42,-671.0000,-93.0000,-4041.0000
1752796506.189,1527.384,0.33394,1.85409,227367.00,4.39816,113890,42,-686.0000,-77.0000,-4038.0000
1752796506.332,1527.527,0.33394,1.85348,228847.00,4.36973,113963,42,-673.0000,-84.0000,-4037.0000
1752796506.459,1527.654,0.33394,1.85287,228353.00,4.37918,113922,42,-684.0000,-77.0000,-4037.0000
1752796506.650,1527.845,0.33333,1.85348,229710.00,4.31779,114008,42,-667.0000,-98.0000,-4033.0000
1752796506.803,1527.998,0.33455,1.85165,229710.00,4.35331,114051,42,-665.0000,-89.0000,-4046.0000
1752796506.927,1528.122,0.33394,1.85287,228135.00,4.38337,114186,42,-666.0000,-95.0000,-4042.0000
1752796507.060,1528.255,0.33578,1.85165,229525.00,4.35682,114228,42,-666.0000,-82.0000,-4035.0000
1752796507.175,1528.370,0.33578,1.85165,230112.00,4.34570,113863,42,-671.0000,-70.0000,-4043.0000
1752796507.367,1528.562,0.33639,1.85165,228720.00,4.37214,113864,42,-665.0000,-92.0000,-4045.0000
1752796507.543,1528.738,0.33578,1.85043,230391.00,4.34045,113898,62,-671.0000,-91.0000,-4042.0000
1752796507.664,1528.859,0.33578,1.85104,230701.00,4.33461,113925,62,-675.0000,-92.0000,-4050.0000
1752796507.802,1528.997,0.33578,1.85104,230173.00,4.34455,113976,62,-671.0000,-81.0000,-4049.0000
1752796507.949,1529.144,0.33639,1.85104,232067.00,4.31834,114053,62,-671.0000,-78.0000,-4037.0000
1752796508.069,1529.264,0.33761,1.85104,232067.00,4.30908,114159,62,-675.0000,-83.0000,-4033.0000
1752796508.186,1529.381,0.33639,1.84982,231477.00,4.32008,114233,62,-687.0000,-81.0000,-4031.0000
1752796508.317,1529.512,0.33700,1.84860,230980.00,4.32937,113821,62,-680.0000,-73.0000,-4035.0000
1752796508.425,1529.620,0.33700,1.84799,229895.00,4.34981,113817,62,-672.0000,-104.0000,-4044.0000
1752796508.571,1529.766,0.33761,1.84982,232377.00,4.30334,113829,51,-667.0000,-89.0000,-4048.0000
1752796508.676,1529.871,0.34005,1.84860,231477.00,4.32008,113891,51,-667.0000,-78.0000,-4037.0000
1752796508.784,1529.979,0.33761,1.84860,233063.00,4.29067,113911,51,-672.0000,-83.0000,-4030.0000
1752796508.926,1530.121,0.33822,1.84737,232942.00,4.29291,114013,51,-671.0000,-89.0000,-4034.0000
1752796509.051,1530.246,0.33883,1.84860,235251.00,4.25077,114061,51,-663.0000,-90.0000,-4051.0000
1752796509.200,1530.395,0.33883,1.84676,233441.00,4.28373,114132,51,-661.0000,-86.0000,-4039.0000
1752796509.322,1530.517,0.33822,1.84737,233441.00,4.28373,114225,51,-664.0000,-82.0000,-4033.0000
1752796509.490,1530.685,0.34066,1.84676,234345.00,4.26939,113815,51,-655.0000,-91.0000,-4037.0000
1752796509.586,1530.781,0.33944,1.84676,234345.00,4.26720,113802,51,-677.0000,-90.0000,-4046.0000
1752796509.728,1530.923,0.34005,1.84615,234345.00,4.26720,113788,51,-681.0000,-95.0000,-4026.0000
1752796509.872,1531.067,0.34188,1.85043,234535.00,4.26374,113855,51,-677.0000,-80.0000,-4031.0000
1752796509.996,1531.191,0.33944,1.84493,235036.00,4.25466,113918,51,-663.0000,-90.0000,-4050.0000
1752796510.128,1531.323,0.34127,1.84493,235847.00,4.24003,113931,51,-669.0000,-97.0000,-4050.0000
1752796510.223,1531.418,0.34249,1.84493,236134.00,4.23487,114010,51,-662.0000,-97.0000,-4029.0000
1752796510.321,1531.516,0.34188,1.84554,237043.00,4.21864,114106,51,-661.0000,-80.0000,-4065.0000
1752796510.495,1531.690,0.34188,1.84432,235728.00,4.24216,114085,51,-673.0000,-77.0000,-4037.0000
1752796510.606,1531.801,0.34310,1.84554,237235.00,4.21522,113775,51,-671.0000,-76.0000,-4035.0000
1752796510.742,1531.937,0.34310,1.84371,235920.00,4.23872,113779,51,-659.0000,-80.0000,-4041.0000
1752796510.898,1532.093,0.34371,1.84310,237428.00,4.21179,113823,51,-674.0000,-91.0000,-4037.0000
1752796511.015,1532.210,0.34310,1.84371,236134.00,4.23487,113896,51,-668.0000,-83.0000,-4034.0000
1752796511.136,1532.331,0.34371,1.84371,237428.00,4.21179,113929,51,-676.0000,-82.0000,-4032.0000
1752796511.251,1532.446,0.34371,1.84371,237428.00,4.21179,113975,51,-676.0000,-86.0000,-4049.0000
1752796511.452,1532.647,0.34371,1.84249,238843.00,4.18684,114089,51,-657.0000,-86.0000,-4042.0000
1752796511.594,1532.789,0.34493,1.84310,237118.00,4.21730,113717,51,-666.0000,-83.0000,-4035.0000
1752796511.696,1532.891,0.34310,1.84249,237718.00,4.20665,113706,51,-675.0000,-82.0000,-4033.0000
1752796511.853,1533.048,0.34310,1.84493,236518.00,4.22799,113762,51,-662.0000,-95.0000,-4050.0000
1752796511.963,1533.158,0.34310,1.84310,239233.00,4.18002,113763,51,-688.0000,-87.0000,-4049.0000
1752796512.148,1533.343,0.34371,1.84310,237835.00,4.20458,113795,51,-669.0000,-90.0000,-4052.0000
1752796512.381,1533.576,0.34249,1.84310,238533.00,4.19228,113867,51,-673.0000,-77.0000,-4038.0000
1752796512.501,1533.696,0.34310,1.84371,237835.00,4.20458,113968,51,-673.0000,-70.0000,-4030.0000
1752796512.630,1533.825,0.34371,1.84310,237428.00,4.21179,113665,51,-675.0000,-91.0000,-4047.0000
1752796512.819,1534.014,0.34371,1.84188,238029.00,4.20116,113592,51,-680.0000,-82.0000,-4045.0000
1752796512.949,1534.144,0.34493,1.84188,238126.00,4.19945,113617,51,-672.0000,-83.0000,-4040.0000
1752796513.084,1534.279,0.34432,1.84127,239233.00,4.18002,113660,51,-669.0000,-79.0000,-4046.0000
1752796513.276,1534.471,0.34493,1.84066,239641.00,4.17291,113691,51,-668.0000,-73.0000,-4045.0000
1752796513.358,1534.553,0.34615,1.84005,239233.00,4.18002,113748,51,-668.0000,-73.0000,-4045.0000
1752796513.485,1534.680,0.34493,1.84066,240948.00,4.15027,113783,51,-683.0000,-78.0000,-4041.0000
1752796513.589,1534.784,0.34737,1.83944,240244.00,4.16242,113829,51,-671.0000,-94.0000,-4036.0000
1752796513.735,1534.930,0.34554,1.84005,241243.00,4.13816,113583,51,-676.0000,-97.0000,-4047.0000
1752796513.814,1535.009,0.34737,1.83944,241243.00,4.14518,113460,51,-676.0000,-97.0000,-4047.0000
1752796513.938,1535.133,0.34737,1.83883,241653.00,4.13816,113488,51,-674.0000,-89.0000,-4050.0000
1752796514.126,1535.321,0.34799,1.83944,241765.00,4.13624,113571,51,-681.0000,-79.0000,-4033.0000
1752796514.293,1535.488,0.34615,1.83822,242669.00,4.12082,113572,51,-676.0000,-74.0000,-4029.0000
1752796514.482,1535.677,0.34676,1.83883,242769.00,4.11914,113601,51,-671.0000,-75.0000,-4049.0000
1752796514.634,1535.829,0.34921,1.83761,242459.00,4.12441,113690,51,-668.0000,-78.0000,-4046.0000
1752796514.728,1535.923,0.34860,1.83700,242968.00,4.11576,113744,51,-675.0000,-101.0000,-4041.0000
1752796514.837,1536.032,0.34921,1.83700,243988.00,4.09855,113473,51,-661.0000,-83.0000,-4032.0000
1752796514.952,1536.147,0.34737,1.83700,243688.00,4.09855,113445,51,-658.0000,-78.0000,-4045.0000
1752796515.050,1536.245,0.34921,1.83761,243688.00,4.10360,113445,51,-669.0000,-89.0000,-4037.0000
1752796515.161,1536.356,0.34737,1.83639,243068.00,4.10714,113459,51,-664.0000,-86.0000,-4053.0000
1752796515.250,1536.445,0.34921,1.83761,243068.00,4.11407,113470,51,-674.0000,-96.0000,-4042.0000
1752796515.400,1536.595,0.34921,1.83700,243988.00,4.10714,113520,51,-665.0000,-84.0000,-4035.0000
1752796515.497,1536.692,0.34921,1.83700,243988.00,4.09855,113573,51,-669.0000,-89.0000,-4039.0000
1752796515.624,1536.819,0.34921,1.83578,243988.00,4.09855,113616,51,-661.0000,-85.0000,-4045.0000
1752796515.748,1536.943,0.34982,1.83700,245010.00,4.08146,113639,51,-666.0000,-83.0000,-4034.0000
1752796515.882,1537.077,0.35104,1.83394,245211.00,4.07811,113279,51,-668.0000,-84.0000,-4037.0000
1752796516.009,1537.204,0.35104,1.83578,246337.00,4.05947,113248,51,-668.0000,-93.0000,-4054.0000
1752796516.143,1537.338,0.35043,1.83516,246236.00,4.06114,113239,51,-683.0000,-82.0000,-4048.0000
1752796516.276,1537.471,0.35165,1.83394,246850.00,4.05103,113265,51,-666.0000,-71.0000,-4053.0000
1752796516.402,1537.597,0.35104,1.83333,246027.00,4.06459,113300,51,-670.0000,-80.0000,-4045.0000
1752796516.505,1537.700,0.35104,1.83455,246128.00,4.06292,113354,51,-665.0000,-77.0000,-4048.0000
1752796516.656,1537.851,0.35348,1.83639,248184.00,4.02925,113385,51,-666.0000,-81.0000,-4034.0000
1752796516.749,1537.944,0.35165,1.83455,248494.00,4.02423,113417,51,-665.0000,-80.0000,-4035.0000
1752796516.890,1538.085,0.35287,1.83394,247670.00,4.05780,113331,51,-666.0000,-90.0000,-4035.0000
1752796516.994,1538.189,0.35226,1.83394,247670.00,4.03763,113197,51,-670.0000,-88.0000,-4044.0000
1752796517.159,1538.354,0.35409,1.83333,248905.00,4.01759,113354,51,-667.0000,-87.0000,-4030.0000
1752796517.305,1538.500,0.35348,1.83211,247772.00,4.03596,113385,51,-673.0000,-86.0000,-4031.0000
1752796517.404,1538.599,0.35348,1.83333,247874.00,4.03430,113417,51,-677.0000,-90.0000,-4039.0000
1752796517.532,1538.727,0.35470,1.83211,247772.00,4.03596,113268,51,-677.0000,-86.0000,-4028.0000
1752796517.646,1538.841,0.35531,1.83211,249008.00,4.01593,113308,51,-675.0000,-85.0000,-4050.0000
1752796517.798,1538.993,0.35592,1.83211,249111.00,4.01427,113335,51,-664.0000,-82.0000,-4042.0000
1752796517.927,1539.122,0.35287,1.83150,249008.00,4.01593,113440,51,-672.0000,-73.0000,-4033.0000
1752796518.087,1539.282,0.35653,1.83150,249421.00,4.01259,113145,51,-685.0000,-86.0000,-4036.0000
1752796518.217,1539.412,0.35531,1.83150,249731.00,4.00928,113200,51,-673.0000,-93.0000,-4034.0000
1752796518.325,1539.520,0.35592,1.83028,249731.00,4.00431,113160,51,-656.0000,-94.0000,-4039.0000
1752796518.424,1539.619,0.35409,1.83089,249731.00,4.00431,113199,51,-673.0000,-73.0000,-4026.0000
1752796518.591,1539.786,0.35531,1.83089,249937.00,4.00099,113277,51,-660.0000,-79.0000,-4047.0000
1752796518.791,1539.986,0.35714,1.82967,250144.00,3.99768,113308,51,-675.0000,-80.0000,-4032.0000
1752796518.918,1540.113,0.35653,1.83028,251596.00,3.97461,113046,51,-660.0000,-88.0000,-4052.0000
1752796519.093,1540.288,0.35775,1.82967,250869.00,3.98613,113056,51,-671.0000,-93.0000,-4042.0000
1752796519.276,1540.471,0.35775,1.83028,252011.00,3.96807,113048,51,-688.0000,-97.0000,-4040.0000
1752796519.396,1540.591,0.35592,1.82967,251284.00,3.97791,113056,51,-665.0000,-87.0000,-4041.0000
1752796519.496,1540.691,0.35836,1.83272,251284.00,3.97956,113088,51,-660.0000,-80.0000,-4045.0000
1752796519.602,1540.797,0.35653,1.82967,249109.00,4.01429,113145,51,-659.0000,-97.0000,-4045.0000
1752796519.711,1540.906,0.35653,1.82967,251388.00,3.97791,113191,51,-673.0000,-80.0000,-4030.0000
1752796519.840,1541.035,0.35714,1.82906,251802.00,3.97136,113208,51,-667.0000,-82.0000,-4039.0000
1752796519.971,1541.166,0.35836,1.82784,252011.00,3.96807,113230,51,-652.0000,-82.0000,-4046.0000
1752796520.101,1541.296,0.35836,1.82784,253261.00,3.94849,112895,51,-679.0000,-99.0000,-4041.0000
1752796520.228,1541.423,0.35653,1.82784,253261.00,3.94849,112811,51,-668.0000,-75.0000,-4042.0000
1752796520.440,1541.635,0.35714,1.82723,252635.00,3.95826,112856,51,-684.0000,-74.0000,-4034.0000
1752796520.547,1541.742,0.35897,1.82723,252740.00,3.95662,112892,51,-665.0000,-85.0000,-4039.0000
1752796520.682,1541.877,0.35958,1.82784,253472.00,3.93875,112936,51,-667.0000,-89.0000,-4035.0000
1752796520.771,1541.966,0.35958,1.82845,253472.00,3.94521,113001,51,-669.0000,-99.0000,-4037.0000
1752796520.909,1542.104,0.35897,1.82784,252740.00,3.95498,113051,51,-673.0000,-85.0000,-4037.0000
1752796521.029,1542.224,0.35958,1.82723,252740.00,3.95662,112863,51,-667.0000,-84.0000,-4047.0000
1752796521.177,1542.372,0.36142,1.82723,253993.00,3.93711,112753,51,-660.0000,-96.0000,-4036.0000
1752796521.306,1542.501,0.36142,1.82784,253261.00,3.94849,112736,51,-658.0000,-96.0000,-4042.0000
1752796521.496,1542.691,0.36081,1.82723,253366.00,3.94685,112774,51,-666.0000,-75.0000,-4039.0000
1752796521.622,1542.817,0.35836,1.82662,254409.00,3.93067,112810,51,-675.0000,-104.0000,-4037.0000
1752796521.790,1542.985,0.35897,1.82662,254303.00,3.93231,112839,51,-662.0000,-76.0000,-4051.0000
1752796521.941,1543.136,0.36020,1.82662,254833.00,3.92413,112916,51,-677.0000,-78.0000,-4041.0000
1752796522.143,1543.338,0.35958,1.82540,255773.00,3.90971,112959,51,-664.0000,-82.0000,-4046.0000
1752796522.267,1543.462,0.36142,1.82418,255560.00,3.91297,112686,51,-664.0000,-82.0000,-4046.0000
1752796522.459,1543.654,0.36203,1.82662,256928.00,3.89214,112637,51,-676.0000,-73.0000,-4051.0000
1752796522.575,1543.770,0.36203,1.82479,254939.00,3.92250,112729,51,-670.0000,-90.0000,-4039.0000
1752796522.720,1543.915,0.36142,1.82601,258813.00,3.89847,112790,51,-675.0000,-81.0000,-4031.0000
1752796522.838,1544.033,0.36081,1.82479,258813.00,3.86378,112829,51,-678.0000,-89.0000,-4039.0000
1752796522.958,1544.153,0.36203,1.82418,256296.00,3.90172,112885,51,-660.0000,-92.0000,-4041.0000
1752796523.115,1544.310,0.36203,1.82418,257035.00,3.89051,112776,51,-662.0000,-75.0000,-4048.0000
1752796523.234,1544.429,0.36142,1.82540,256510.00,3.89847,112589,51,-677.0000,-89.0000,-4053.0000
1752796523.372,1544.567,0.36264,1.82418,256618.00,3.89684,112568,51,-674.0000,-75.0000,-4042.0000
1752796523.468,1544.663,0.36264,1.82479,257453.00,3.88420,112587,51,-655.0000,-102.0000,-4037.0000
1752796523.557,1544.752,0.36203,1.82540,256618.00,3.89684,112636,51,-675.0000,-90.0000,-4046.0000
1752796523.667,1544.862,0.36386,1.82295,255986.00,3.90645,112589,51,-679.0000,-93.0000,-4041.0000
1752796523.767,1544.962,0.36203,1.82418,258410.00,3.86982,112788,51,-664.0000,-84.0000,-4036.0000
1752796523.876,1545.071,0.36203,1.82295,257357.00,3.88564,112766,51,-683.0000,-83.0000,-4042.0000
1752796524.036,1545.231,0.36447,1.82234,254416.00,3.93056,112461,51,-669.0000,-83.0000,-4042.0000
1752796524.144,1545.339,0.36325,1.82234,258302.00,3.87144,112433,51,-662.0000,-69.0000,-4040.0000
1752796524.257,1545.452,0.36386,1.82234,258828.00,3.86356,112488,51,-662.0000,-69.0000,-4040.0000
1752796524.377,1545.572,0.36508,1.82234,258936.00,3.86195,112488,51,-670.0000,-74.0000,-4049.0000
1752796524.493,1545.688,0.36569,1.82234,259355.00,3.85571,112529,51,-667.0000,-80.0000,-4035.0000
1752796524.587,1545.782,0.36386,1.82295,258302.00,3.87144,112583,51,-667.0000,-85.0000,-4031.0000
1752796524.733,1545.928,0.36386,1.82295,258410.00,3.86982,112662,51,-678.0000,-86.0000,-4046.0000
1752796524.942,1546.137,0.36508,1.82173,258302.00,3.87144,112717,51,-688.0000,-87.0000,-4037.0000
1752796525.112,1546.307,0.36508,1.82112,259681.00,3.85087,112779,51,-675.0000,-92.0000,-4033.0000
1752796525.247,1546.442,0.36569,1.82173,259572.00,3.85248,112372,51,-654.0000,-98.0000,-4043.0000
1752796525.381,1546.576,0.36630,1.82112,259790.00,3.84926,112362,51,-670.0000,-78.0000,-4039.0000
1752796525.536,1546.731,0.36508,1.82112,260209.00,3.83526,112410,51,-675.0000,-73.0000,-4032.0000
1752796525.618,1546.813,0.36630,1.82051,260209.00,3.84306,112457,51,-675.0000,-73.0000,-4032.0000
1752796525.734,1546.929,0.36447,1.82173,260957.00,3.83205,112555,51,-673.0000,-75.0000,-4037.0000
1752796525.881,1547.076,0.36630,1.82051,262126.00,3.81494,112641,51,-663.0000,-95.0000,-4052.0000
1752796526.003,1547.198,0.36691,1.82051,260957.00,3.83205,112552,51,-670.0000,-91.0000,-4046.0000
1752796526.183,1547.378,0.36569,1.81929,261486.00,3.82428,112432,51,-676.0000,-85.0000,-4041.0000
1752796526.277,1547.472,0.36691,1.81929,262657.00,3.80724,112497,51,-676.0000,-85.0000,-4041.0000
1752796526.432,1547.627,0.36813,1.81929,262126.00,3.81494,112501,51,-680.0000,-87.0000,-4040.0000
1752796526.578,1547.773,0.36508,1.81868,262326.00,3.80564,112582,51,-679.0000,-86.0000,-4042.0000
1752796526.712,1547.907,0.36630,1.81868,259479.00,3.81204,112613,51,-690.0000,-73.0000,-4043.0000
1752796526.813,1548.008,0.36691,1.81929,259479.00,3.85386,112720,51,-662.0000,-80.0000,-4043.0000
1752796526.929,1548.124,0.36691,1.81868,262657.00,3.80724,112763,51,-666.0000,-89.0000,-4039.0000
1752796527.077,1548.272,0.36691,1.81746,263410.00,3.79635,112748,51,-672.0000,-98.0000,-4040.0000
1752796527.215,1548.410,0.36813,1.81929,262878.00,3.80403,112542,51,-680.0000,-73.0000,-4036.0000
1752796527.402,1548.597,0.36813,1.81807,266076.00,3.75832,112531,51,-671.0000,-62.0000,-4039.0000
1752796527.557,1548.752,0.36996,1.81807,263854.00,3.78996,112592,51,-675.0000,-89.0000,-4037.0000
1752796527.662,1548.857,0.36874,1.82051,264054.00,3.78710,112636,51,-689.0000,-94.0000,-4050.0000
1752796527.759,1548.954,0.36996,1.81746,267597.00,3.73696,112715,51,-689.0000,-94.0000,-4050.0000
1752796527.902,1549.097,0.36874,1.81685,264276.00,3.78391,112792,51,-666.0000,-81.0000,-4053.0000
1752796528.015,1549.210,0.36996,1.81685,263831.00,3.79030,112855,51,-669.0000,-91.0000,-4045.0000
1752796528.095,1549.290,0.36874,1.81624,264810.00,3.77629,112900,51,-674.0000,-90.0000,-4041.0000
1752796528.227,1549.422,0.36874,1.81746,265120.00,3.77187,112578,51,-676.0000,-72.0000,-4047.0000
1752796528.344,1549.539,0.37179,1.81502,265344.00,3.76869,112555,51,-669.0000,-86.0000,-4030.0000
1752796528.469,1549.664,0.37179,1.81258,266413.00,3.75357,112602,51,-668.0000,-96.0000,-4045.0000
1752796528.595,1549.790,0.36996,1.81502,265120.00,3.77187,112629,51,-670.0000,-85.0000,-4041.0000
1752796528.728,1549.923,0.37057,1.81624,265990.00,3.75953,112662,51,-670.0000,-89.0000,-4049.0000
1752796528.861,1550.056,0.37179,1.81441,267287.00,3.74564,112745,51,-680.0000,-88.0000,-4033.0000
1752796529.013,1550.208,0.37424,1.81441,267287.00,3.74129,112797,51,-667.0000,-80.0000,-4039.0000
1752796529.115,1550.310,0.37302,1.81380,270089.00,3.70248,112915,51,-665.0000,-83.0000,-4026.0000
1752796529.259,1550.454,0.37424,1.81258,268164.00,3.72905,112578,51,-687.0000,-92.0000,-4024.0000
1752796529.394,1550.589,0.37302,1.81258,267740.00,3.73496,112555,51,-673.0000,-84.0000,-4040.0000
1752796529.540,1550.735,0.37363,1.81258,268505.00,3.72431,112597,51,-666.0000,-80.0000,-4039.0000
1752796529.673,1550.868,0.37546,1.81319,271203.00,3.68726,112657,51,-677.0000,-75.0000,-4050.0000
1752796529.802,1550.997,0.37424,1.81136,269044.00,3.71686,112742,51,-658.0000,-65.0000,-4054.0000
1752796529.967,1551.162,0.37546,1.81074,269469.00,3.71100,112840,51,-660.0000,-95.0000,-4043.0000
1752796530.093,1551.288,0.37546,1.81136,270663.00,3.70942,112883,51,-681.0000,-80.0000,-4040.0000
1752796530.206,1551.401,0.37546,1.81074,270663.00,3.69463,112802,51,-672.0000,-82.0000,-4039.0000
1752796530.366,1551.561,0.37546,1.80952,271203.00,3.68726,112664,51,-672.0000,-82.0000,-4039.0000
1752796530.511,1551.706,0.37607,1.80952,272286.00,3.67261,112744,51,-664.0000,-87.0000,-4026.0000
1752796530.668,1551.863,0.37607,1.81013,272402.00,3.67104,112759,51,-662.0000,-91.0000,-4037.0000
1752796530.803,1551.998,0.37729,1.81074,271088.00,3.68883,112859,51,-674.0000,-88.0000,-4048.0000
1752796530.936,1552.131,0.37668,1.81013,271550.00,3.68256,112941,51,-678.0000,-71.0000,-4052.0000
1752796531.078,1552.273,0.37607,1.81013,271976.00,3.69149,112981,51,-676.0000,-102.0000,-4034.0000
1752796531.189,1552.384,0.37729,1.80952,271860.00,3.67679,113056,51,-666.0000,-96.0000,-4038.0000
1752796531.296,1552.491,0.37729,1.81074,271860.00,3.67836,112726,51,-666.0000,-81.0000,-4043.0000
1752796531.430,1552.625,0.37607,1.80952,271860.00,3.67836,112654,51,-680.0000,-102.0000,-4044.0000
1752796531.609,1552.804,0.37851,1.80952,273060.00,3.66219,112712,51,-673.0000,-86.0000,-4056.0000
1752796531.741,1552.936,0.37607,1.81013,273293.00,3.65907,112771,51,-680.0000,-88.0000,-4046.0000
1752796531.836,1553.031,0.37607,1.80891,271860.00,3.67836,112855,51,-674.0000,-72.0000,-4045.0000
1752796532.017,1553.212,0.37729,1.81258,273099.00,3.66166,112953,51,-679.0000,-85.0000,-4033.0000
1752796532.174,1553.369,0.37912,1.81197,274188.00,3.64713,113023,51,-668.0000,-86.0000,-4027.0000
1752796532.310,1553.505,0.37851,1.80769,272750.00,3.66635,112948,51,-661.0000,-89.0000,-4041.0000
1752796532.486,1553.681,0.37851,1.80769,274498.00,3.64301,112695,51,-671.0000,-82.0000,-4040.0000
1752796532.677,1553.872,0.37851,1.80769,274498.00,3.64301,112694,51,-669.0000,-78.0000,-4038.0000
1752796532.820,1554.015,0.37851,1.80891,275705.00,3.62706,112740,51,-672.0000,-87.0000,-4045.0000
1752796532.905,1554.100,0.37851,1.80708,275823.00,3.62550,112798,51,-672.0000,-87.0000,-4045.0000
1752796533.025,1554.220,0.38095,1.80769,275042.00,3.63580,112879,51,-664.0000,-91.0000,-4038.0000
1752796533.127,1554.322,0.38034,1.80769,273953.00,3.65025,112941,51,-672.0000,-79.0000,-4028.0000
1752796533.248,1554.443,0.37912,1.80708,274850.00,3.63834,113020,51,-654.0000,-95.0000,-4037.0000
1752796533.350,1554.545,0.37851,1.80647,275395.00,3.63114,112911,51,-669.0000,-75.0000,-4042.0000
1752796533.471,1554.666,0.37973,1.80647,276488.00,3.61679,112742,51,-663.0000,-86.0000,-4025.0000
1752796533.573,1554.768,0.37851,1.80586,277153.00,3.60810,112752,51,-667.0000,-86.0000,-4034.0000
1752796533.710,1554.905,0.38156,1.80647,276369.00,3.61524,112800,51,-677.0000,-91.0000,-4038.0000
1752796533.813,1555.008,0.38156,1.80464,276369.00,3.61834,112856,51,-665.0000,-88.0000,-4039.0000
1752796533.911,1555.106,0.38217,1.80586,277820.00,3.59944,112923,51,-674.0000,-90.0000,-4035.0000
1752796534.010,1555.205,0.38217,1.80403,276844.00,3.61214,112975,51,-674.0000,-87.0000,-4039.0000
1752796534.126,1555.321,0.38156,1.80525,278369.00,3.59235,113064,51,-666.0000,-70.0000,-4045.0000
1752796534.271,1555.466,0.38278,1.80403,275749.00,3.62648,112770,51,-665.0000,-89.0000,-4045.0000
1752796534.393,1555.588,0.38278,1.80403,279587.00,3.57670,112799,51,-678.0000,-62.0000,-4038.0000
1752796534.496,1555.691,0.38339,1.80342,279037.00,3.58374,112796,51,-682.0000,-76.0000,-4028.0000
1752796534.696,1555.891,0.38278,1.80281,283809.00,3.52349,112822,51,-660.0000,-103.0000,-4045.0000
1752796534.839,1556.034,0.38339,1.80342,278798.00,3.35501,112907,51,-679.0000,-86.0000,-4038.0000
1752796535.010,1556.205,0.38156,1.80464,278798.00,3.58682,113011,51,-666.0000,-80.0000,-4050.0000
1752796535.124,1556.319,0.38095,1.80220,277272.00,3.60656,113053,51,-679.0000,-76.0000,-4041.0000
1752796535.251,1556.446,0.38156,1.80403,279896.00,3.57274,112749,51,-657.0000,-77.0000,-4029.0000
1752796535.390,1556.585,0.38217,1.80403,275749.00,3.62648,112773,51,-666.0000,-84.0000,-4052.0000
1752796535.502,1556.697,0.38278,1.80525,278488.00,3.59081,112783,51,-678.0000,-90.0000,-4055.0000
1752796535.601,1556.796,0.38156,1.80403,279037.00,3.58374,112863,51,-660.0000,-75.0000,-4036.0000
1752796535.750,1556.945,0.38339,1.80342,279277.00,3.58066,112904,51,-671.0000,-90.0000,-4030.0000
1752796535.947,1557.142,0.38339,1.80342,280017.00,3.57121,112998,51,-667.0000,-99.0000,-4047.0000
1752796536.098,1557.293,0.38278,1.80220,279157.00,3.58220,112701,51,-661.0000,-84.0000,-4039.0000
1752796536.226,1557.421,0.38339,1.80525,279828.00,3.57362,112622,51,-679.0000,-77.0000,-4036.0000
1752796536.337,1557.532,0.38462,1.80220,280378.00,3.56661,112631,51,-667.0000,-73.0000,-4039.0000
1752796536.458,1557.653,0.38278,1.80220,280620.00,3.56354,112656,51,-675.0000,-87.0000,-4021.0000
1752796536.576,1557.771,0.38400,1.80281,282276.00,3.54262,112697,51,-669.0000,-87.0000,-4038.0000
1752796536.685,1557.880,0.38523,1.80220,281050.00,3.55808,112756,51,-670.0000,-88.0000,-4036.0000
1752796536.835,1558.030,0.38584,1.80159,282398.00,3.54109,112564,51,-673.0000,-88.0000,-4040.0000
1752796536.925,1558.120,0.38523,1.80098,281050.00,3.55808,112490,51,-680.0000,-79.0000,-4060.0000
1752796537.107,1558.302,0.38339,1.80098,281602.00,3.55110,112513,51,-668.0000,-77.0000,-4034.0000
1752796537.312,1558.507,0.38584,1.80098,281724.00,3.54957,112561,51,-672.0000,-80.0000,-4038.0000
1752796537.442,1558.637,0.38462,1.80159,281724.00,3.54957,112615,51,-672.0000,-78.0000,-4046.0000
1752796537.541,1558.736,0.38523,1.79976,281360.00,3.55416,112628,51,-676.0000,-84.0000,-4046.0000
1752796537.675,1558.870,0.38462,1.80220,282520.00,3.53957,112601,51,-671.0000,-84.0000,-4032.0000
1752796537.782,1558.977,0.38523,1.80220,281845.00,3.54804,112424,51,-671.0000,-72.0000,-4045.0000
1752796537.955,1559.150,0.38645,1.80159,280189.00,3.56200,112364,51,-660.0000,-73.0000,-4034.0000
1752796538.126,1559.321,0.38339,1.80098,280189.00,3.56901,112391,51,-685.0000,-81.0000,-4050.0000
1752796538.240,1559.435,0.38584,1.80037,281293.00,3.55501,112463,51,-671.0000,-86.0000,-4050.0000
1752796538.377,1559.572,0.38584,1.79976,282520.00,3.53957,112527,51,-662.0000,-86.0000,-4042.0000
1752796538.540,1559.735,0.38462,1.80098,283564.00,3.52654,112576,51,-668.0000,-73.0000,-4047.0000
1752796538.635,1559.830,0.38462,1.80037,282764.00,3.53651,112452,51,-662.0000,-83.0000,-4044.0000
1752796538.740,1559.935,0.38645,1.80037,282642.00,3.53804,112313,51,-674.0000,-81.0000,-4036.0000
1752796538.848,1560.043,0.38645,1.80098,282642.00,3.53804,112288,51,-678.0000,-71.0000,-4042.0000
1752796539.039,1560.234,0.38523,1.79976,282089.00,3.53264,112279,51,-669.0000,-106.0000,-4030.0000
1752796539.146,1560.341,0.38645,1.79976,282089.00,3.54498,112313,51,-674.0000,-76.0000,-4035.0000
1752796539.276,1560.471,0.38706,1.79915,283196.00,3.53112,112371,51,-660.0000,-74.0000,-4035.0000
1752796539.472,1560.667,0.38523,1.79915,283441.00,3.52807,112505,51,-670.0000,-86.0000,-4033.0000
1752796539.641,1560.836,0.38645,1.80098,283873.00,3.52269,112473,51,-657.0000,-91.0000,-4032.0000
1752796539.803,1560.998,0.38584,1.79792,282764.00,3.53651,112297,51,-657.0000,-91.0000,-4032.0000
1752796539.923,1561.118,0.38584,1.79915,284738.00,3.51199,112367,51,-682.0000,-88.0000,-4033.0000
1752796540.064,1561.259,0.38645,1.79915,284306.00,3.51733,112346,51,-661.0000,-94.0000,-4040.0000
1752796540.268,1561.463,0.38767,1.79853,282886.00,3.53498,112417,51,-678.0000,-89.0000,-4034.0000
1752796540.421,1561.616,0.38767,1.79792,283196.00,3.53112,112469,51,-670.0000,-93.0000,-4044.0000
1752796540.607,1561.802,0.38767,1.79792,284675.00,3.51277,112577,51,-668.0000,-97.0000,-4046.0000
1752796540.698,1561.893,0.38767,1.79792,284119.00,3.51965,112534,51,-668.0000,-84.0000,-4039.0000
1752796540.796,1561.991,0.38950,1.79731,284552.00,3.51429,112333,51,-661.0000,-83.0000,-4043.0000
1752796540.919,1562.114,0.38889,1.79792,286036.00,3.49606,112292,51,-666.0000,-95.0000,-4029.0000
1752796541.044,1562.239,0.39133,1.79670,285355.00,3.50440,112339,51,-673.0000,-75.0000,-4042.0000
1752796541.167,1562.362,0.38767,1.79426,284798.00,3.51125,112388,51,-656.0000,-83.0000,-4040.0000
1752796541.303,1562.498,0.38950,1.79853,286470.00,3.49077,112454,51,-661.0000,-80.0000,-4033.0000
1752796541.434,1562.629,0.38828,1.79792,284922.00,3.50973,112544,51,-674.0000,-78.0000,-4031.0000
1752796541.555,1562.750,0.39011,1.79792,285231.00,3.50592,112580,51,-682.0000,-81.0000,-4038.0000
1752796541.655,1562.850,0.38889,1.79792,284429.00,3.51581,112666,51,-671.0000,-84.0000,-4032.0000
1752796541.757,1562.952,0.38645,1.79976,285231.00,3.50592,112417,51,-666.0000,-78.0000,-4039.0000
1752796541.877,1563.072,0.38706,1.79915,283196.00,3.53112,112353,51,-666.0000,-80.0000,-4043.0000
1752796541.990,1563.185,0.38584,1.79976,284798.00,3.51125,112396,51,-668.0000,-69.0000,-4037.0000
1752796542.112,1563.307,0.38584,1.79915,284306.00,3.51733,112428,51,-664.0000,-82.0000,-4046.0000
1752796542.233,1563.428,0.38645,1.80037,282520.00,3.53957,112488,51,-672.0000,-79.0000,-4032.0000
1752796542.361,1563.556,0.38400,1.80098,282520.00,3.53957,112533,51,-674.0000,-92.0000,-4051.0000
1752796542.516,1563.711,0.38462,1.80159,282033.00,3.54568,112635,51,-673.0000,-103.0000,-4037.0000
1752796542.627,1563.822,0.38400,1.80281,280620.00,3.56354,112706,51,-673.0000,-103.0000,-4037.0000
1752796542.795,1563.990,0.38400,1.80220,279948.00,3.57209,112816,51,-683.0000,-85.0000,-4035.0000
1752796542.913,1564.108,0.38400,1.80342,280499.00,3.56507,112502,51,-666.0000,-89.0000,-4040.0000
1752796543.085,1564.280,0.38156,1.80403,279397.00,3.57912,112544,51,-666.0000,-85.0000,-4050.0000
1752796543.186,1564.381,0.38278,1.80342,277939.00,3.59790,112582,51,-675.0000,-81.0000,-4041.0000
1752796543.286,1564.481,0.38217,1.80586,278918.00,3.58528,112663,51,-666.0000,-83.0000,-4036.0000
1752796543.434,1564.629,0.38156,1.80525,278369.00,3.59235,112671,51,-660.0000,-90.0000,-4042.0000
1752796543.537,1564.732,0.38095,1.80525,277701.00,3.60099,112735,51,-664.0000,-83.0000,-4037.0000
1752796543.632,1564.827,0.38034,1.80403,277153.00,3.60810,112795,51,-675.0000,-85.0000,-4036.0000
1752796543.742,1564.937,0.37973,1.80525,278130.00,3.59544,112917,51,-673.0000,-80.0000,-4048.0000
1752796543.866,1565.061,0.38095,1.80586,277820.00,3.59944,112857,51,-682.0000,-82.0000,-4037.0000
1752796543.967,1565.162,0.38217,1.80464,278918.00,3.58528,112710,51,-669.0000,-77.0000,-4050.0000
1752796544.093,1565.288,0.38095,1.80464,277272.00,3.60656,112724,51,-664.0000,-83.0000,-4033.0000
1752796544.203,1565.398,0.38278,1.80525,277701.00,3.60099,112806,51,-675.0000,-82.0000,-4040.0000
1752796544.340,1565.535,0.38278,1.80464,277510.00,3.60346,112822,51,-667.0000,-89.0000,-4033.0000
1752796544.452,1565.647,0.38095,1.80525,276962.00,3.61059,112930,51,-670.0000,-70.0000,-4039.0000
1752796544.565,1565.760,0.38156,1.80525,277272.00,3.60656,113002,51,-666.0000,-91.0000,-4045.0000
1752796544.732,1565.927,0.38217,1.80586,277820.00,3.59944,113118,51,-663.0000,-85.0000,-4038.0000
1752796544.873,1566.068,0.38156,1.80464,278059.00,3.59636,113152,51,-689.0000,-83.0000,-4031.0000
1752796545.020,1566.215,0.38095,1.80403,278059.00,3.59636,112808,51,-665.0000,-90.0000,-4033.0000
1752796545.172,1566.367,0.38217,1.80281,278608.00,3.58927,112865,51,-674.0000,-93.0000,-4044.0000
1752796545.378,1566.573,0.38462,1.80342,279277.00,3.58927,113073,51,-672.0000,-83.0000,-4041.0000
1752796545.527,1566.722,0.38095,1.80281,279037.00,3.58066,112999,51,-667.0000,-81.0000,-4037.0000
1752796545.674,1566.869,0.39560,1.79365,298811.00,3.58374,113125,51,-673.0000,-83.0000,-4047.0000
1752796545.778,1566.973,0.38400,1.80220,298811.00,3.34660,113220,51,-677.0000,-85.0000,-4034.0000
1752796545.885,1567.080,0.40110,1.78632,295000.00,3.38983,113273,51,-676.0000,-80.0000,-4040.0000
1752796546.033,1567.228,0.39011,1.79426,285540.00,3.53722,113064,51,-665.0000,-83.0000,-4043.0000
1752796546.115,1567.310,0.38523,1.80220,285540.00,3.50213,112864,51,-666.0000,-95.0000,-4033.0000
1752796546.262,1567.457,0.40232,1.78205,289838.00,3.45020,112865,51,-676.0000,-84.0000,-4034.0000
1752796546.447,1567.642,0.40476,1.78083,305908.00,3.26895,112889,51,-680.0000,-80.0000,-4039.0000
1752796546.623,1567.818,0.38400,1.80281,281293.00,3.28284,112983,51,-672.0000,-77.0000,-4046.0000
1752796546.730,1567.925,0.38400,1.80098,281293.00,3.55501,113070,51,-663.0000,-69.0000,-4030.0000
1752796546.855,1568.050,0.38339,1.80281,280808.00,3.56114,113143,51,-672.0000,-73.0000,-4033.0000
1752796546.967,1568.162,0.40232,1.78388,286967.00,3.48471,113239,51,-657.0000,-91.0000,-4044.0000
1752796547.120,1568.315,0.39988,1.78938,287462.00,3.47872,113371,51,-668.0000,-85.0000,-4045.0000
1752796547.241,1568.436,0.39927,1.79121,282952.00,3.53417,112998,51,-675.0000,-77.0000,-4042.0000
1752796547.367,1568.562,0.40110,1.78449,293684.00,3.40502,112984,51,-679.0000,-91.0000,-4038.0000
1752796547.517,1568.712,0.40171,1.78694,289895.00,3.44952,113026,51,-670.0000,-79.0000,-4041.0000
1752796547.632,1568.827,0.39438,1.79304,300794.00,3.32453,113044,51,-671.0000,-83.0000,-4042.0000
1752796547.725,1568.920,0.39438,1.79304,292220.00,3.42208,113094,51,-671.0000,-83.0000,-4042.0000
1752796547.866,1569.061,0.38828,1.79609,290964.00,3.43684,113129,51,-656.0000,-79.0000,-4045.0000
1752796547.977,1569.172,0.40598,1.77778,303323.00,3.29682,113275,51,-656.0000,-88.0000,-4034.0000
1752796548.151,1569.346,0.40049,1.78877,286782.00,3.48696,113300,51,-658.0000,-83.0000,-4036.0000
1752796548.323,1569.518,0.41026,1.77778,307754.00,3.24935,113120,51,-675.0000,-74.0000,-4039.0000
1752796548.533,1569.728,0.40965,1.77473,311091.00,3.21449,113171,51,-664.0000,-81.0000,-4044.0000
1752796548.676,1569.871,0.40904,1.77350,312544.00,3.20988,113203,51,-670.0000,-89.0000,-4032.0000
1752796548.901,1570.096,0.41087,1.77411,310813.00,3.19954,113303,51,-674.0000,-73.0000,-4024.0000
1752796549.056,1570.251,0.41148,1.77656,310813.00,3.21737,113374,51,-678.0000,-92.0000,-4032.0000
1752796549.178,1570.373,0.40965,1.77473,309781.00,3.22808,113431,51,-689.0000,-76.0000,-4059.0000
1752796549.320,1570.515,0.39194,1.79304,312265.00,3.20241,113319,51,-658.0000,-73.0000,-4037.0000
1752796549.469,1570.664,0.38828,1.79487,285912.00,3.49757,113169,51,-678.0000,-79.0000,-4049.0000
1752796549.573,1570.768,0.39744,1.78877,285664.00,3.50061,113205,51,-689.0000,-72.0000,-4027.0000
1752796549.673,1570.868,0.40659,1.77961,287711.00,3.47570,113193,51,-662.0000,-98.0000,-4042.0000
1752796549.808,1571.003,0.40720,1.77900,298108.00,3.35449,113291,51,-671.0000,-92.0000,-4034.0000
1752796549.917,1571.112,0.40842,1.77900,300044.00,3.33284,113361,51,-666.0000,-94.0000,-4044.0000
1752796550.084,1571.279,0.40293,1.78571,294354.00,3.39726,113428,51,-671.0000,-81.0000,-4032.0000
1752796550.241,1571.436,0.38889,1.79487,297323.00,3.36334,113205,51,-665.0000,-85.0000,-4059.0000
1752796550.386,1571.581,0.39011,1.79670,299383.00,3.34020,113119,51,-681.0000,-72.0000,-4042.0000
1752796550.534,1571.729,0.38767,1.79609,287152.00,3.48247,113132,51,-687.0000,-76.0000,-4036.0000
1752796550.682,1571.877,0.38767,1.79731,286160.00,3.49454,113168,51,-683.0000,-88.0000,-4047.0000
1752796550.793,1571.988,0.38889,1.79731,285664.00,3.50061,113193,51,-658.0000,-82.0000,-4035.0000
1752796550.901,1572.096,0.38889,1.79609,285912.00,3.49757,113255,51,-664.0000,-85.0000,-4042.0000
1752796551.015,1572.210,0.39011,1.79548,285355.00,3.50440,113283,51,-683.0000,-80.0000,-4040.0000
1752796551.126,1572.321,0.38950,1.79670,287152.00,3.48247,113119,51,-678.0000,-75.0000,-4033.0000
1752796551.267,1572.462,0.38950,1.79792,286718.00,3.48774,113308,51,-663.0000,-89.0000,-4029.0000
1752796551.411,1572.606,0.39072,1.79548,287277.00,3.48095,113008,51,-685.0000,-79.0000,-4027.0000
1752796551.502,1572.697,0.39011,1.79609,287028.00,3.48398,113003,51,-658.0000,-58.0000,-4033.0000
1752796551.591,1572.786,0.39072,1.79548,287277.00,3.48095,112957,51,-679.0000,-74.0000,-4041.0000
1752796551.733,1572.928,0.39072,1.79609,287961.00,3.47268,113041,51,-671.0000,-89.0000,-4039.0000
1752796551.817,1573.012,0.39133,1.79548,290893.00,3.43769,113101,51,-671.0000,-89.0000,-4039.0000
1752796551.930,1573.125,0.40720,1.78205,288087.00,3.47117,113196,51,-681.0000,-76.0000,-4042.0000
1752796552.098,1573.293,0.40537,1.78266,303996.00,3.28951,113261,51,-670.0000,-79.0000,-4031.0000
1752796552.246,1573.441,0.41026,1.77595,308199.00,3.24465,112928,51,-663.0000,-82.0000,-4026.0000
1752796552.346,1573.541,0.41087,1.77411,311677.00,3.20844,112953,51,-671.0000,-92.0000,-4040.0000
1752796552.490,1573.685,0.41148,1.77473,308370.00,3.24285,112966,51,-668.0000,-77.0000,-4050.0000
1752796552.632,1573.827,0.41514,1.77045,316201.00,3.15378,113013,51,-672.0000,-89.0000,-4035.0000
1752796552.745,1573.940,0.41514,1.77106,315609.00,3.16254,113092,51,-658.0000,-85.0000,-4042.0000
1752796552.844,1574.039,0.41453,1.77045,315609.00,3.16847,113120,51,-661.0000,-95.0000,-4037.0000
1752796552.959,1574.154,0.41453,1.77045,317509.00,3.14952,113200,51,-681.0000,-77.0000,-4028.0000
1752796553.112,1574.307,0.41453,1.77045,316794.00,3.14039,113135,51,-668.0000,-79.0000,-4046.0000
1752796553.211,1574.406,0.41514,1.77106,316794.00,3.15662,112937,51,-658.0000,-90.0000,-4048.0000
1752796553.324,1574.519,0.41636,1.76923,318411.00,3.14059,112929,51,-681.0000,-89.0000,-4039.0000
1752796553.486,1574.681,0.41575,1.76862,318411.00,3.14059,112987,51,-672.0000,-85.0000,-4031.0000
1752796553.602,1574.797,0.41758,1.76923,318862.00,3.13614,113016,51,-665.0000,-93.0000,-4040.0000
1752796553.728,1574.923,0.39438,1.79060,306008.00,3.14505,113056,51,-682.0000,-79.0000,-4049.0000
1752796553.853,1575.048,0.41392,1.77228,306008.00,3.26789,113160,51,-668.0000,-83.0000,-4058.0000
1752796553.958,1575.153,0.40904,1.77839,314427.00,3.18039,113224,51,-680.0000,-97.0000,-4030.0000
1752796554.057,1575.252,0.41453,1.77289,307891.00,3.24790,112979,51,-680.0000,-86.0000,-4049.0000
1752796554.173,1575.368,0.40171,1.78144,314311.00,3.18156,112851,51,-672.0000,-82.0000,-4036.0000
1752796554.383,1575.578,0.41331,1.77289,295179.00,3.38777,112868,51,-674.0000,-94.0000,-4056.0000
1752796554.519,1575.714,0.39316,1.79121,312684.00,3.19811,112903,51,-684.0000,-74.0000,-4034.0000
1752796554.623,1575.818,0.40781,1.78144,292401.00,3.41995,112988,51,-669.0000,-79.0000,-4035.0000
1752796554.755,1575.950,0.39499,1.79243,304711.00,3.28180,113043,51,-667.0000,-68.0000,-4030.0000
1752796554.892,1576.087,0.39438,1.79121,291147.00,3.43469,113094,51,-677.0000,-81.0000,-4038.0000
1752796555.006,1576.201,0.39499,1.79243,292913.00,3.41398,113139,51,-685.0000,-86.0000,-4051.0000
1752796555.114,1576.309,0.39499,1.79182,291401.00,3.43169,112974,51,-667.0000,-88.0000,-4045.0000
1752796555.233,1576.428,0.39316,1.79487,291965.00,3.42507,112836,51,-670.0000,-72.0000,-4045.0000
1752796555.324,1576.519,0.39377,1.79243,289024.00,3.45992,112793,51,-656.0000,-84.0000,-4051.0000
1752796555.463,1576.658,0.39316,1.79060,291401.00,3.43169,112814,51,-656.0000,-76.0000,-4037.0000
1752796555.574,1576.769,0.39438,1.79121,292220.00,3.42208,112851,51,-677.0000,-75.0000,-4034.0000
1752796555.709,1576.904,0.39438,1.79182,292529.00,3.41846,112905,51,-682.0000,-77.0000,-4033.0000
1752796555.862,1577.057,0.39560,1.79121,292274.00,3.42870,112986,51,-665.0000,-87.0000,-4029.0000
1752796555.953,1577.148,0.41087,1.77595,292274.00,3.42144,113066,51,-677.0000,-91.0000,-4040.0000
1752796556.067,1577.262,0.41575,1.76923,310644.00,3.21912,113106,51,-675.0000,-89.0000,-4039.0000
1752796556.214,1577.409,0.41514,1.76740,311091.00,3.21449,113233,51,-691.0000,-94.0000,-4042.0000
1752796556.333,1577.528,0.41880,1.76618,313273.00,3.19210,112892,51,-650.0000,-87.0000,-4039.0000
1752796556.496,1577.691,0.42247,1.76374,322560.00,3.10020,112909,51,-675.0000,-71.0000,-4027.0000
1752796556.608,1577.803,0.42247,1.76313,325261.00,3.07445,112921,51,-674.0000,-82.0000,-4037.0000
1752796556.727,1577.922,0.41941,1.76557,325865.00,3.06875,113037,51,-682.0000,-94.0000,-4045.0000
1752796556.869,1578.064,0.41819,1.76740,322121.00,3.09865,113115,51,-662.0000,-85.0000,-4040.0000
1752796556.945,1578.140,0.42063,1.76740,322121.00,3.10442,113201,51,-673.0000,-77.0000,-4031.0000
1752796557.074,1578.269,0.39988,1.78266,321214.00,3.11318,113284,51,-677.0000,-88.0000,-4051.0000
1752796557.258,1578.453,0.39744,1.78755,301810.00,3.31334,113193,51,-675.0000,-85.0000,-4033.0000
1752796557.375,1578.570,0.39805,1.78877,296706.00,3.37034,113030,51,-649.0000,-81.0000,-4040.0000
1752796557.533,1578.728,0.39927,1.78877,296575.00,3.37182,113057,51,-683.0000,-78.0000,-4040.0000
1752796557.678,1578.873,0.41026,1.77656,309025.00,3.23597,113061,51,-679.0000,-90.0000,-4046.0000
1752796557.850,1579.045,0.39805,1.78755,304652.00,3.28243,113243,51,-667.0000,-90.0000,-4031.0000
1752796558.022,1579.217,0.41392,1.77717,310165.00,3.35596,113282,51,-691.0000,-79.0000,-4039.0000
1752796558.134,1579.329,0.41819,1.76862,317079.00,3.22408,113330,51,-670.0000,-79.0000,-4042.0000
1752796558.259,1579.454,0.39805,1.78632,317079.00,3.15378,113413,51,-685.0000,-85.0000,-4038.0000
1752796558.363,1579.558,0.39683,1.78816,295877.00,3.37978,113056,51,-672.0000,-76.0000,-4037.0000
1752796558.556,1579.751,0.41575,1.77167,315893.00,3.40232,113088,51,-677.0000,-88.0000,-4033.0000
1752796558.656,1579.851,0.39560,1.79182,315893.00,3.16562,113163,51,-675.0000,-85.0000,-4033.0000
1752796558.838,1580.033,0.39316,1.79243,292348.00,3.42058,113177,51,-664.0000,-72.0000,-4036.0000
1752796558.981,1580.176,0.41209,1.77534,307034.00,3.42656,113279,51,-666.0000,-90.0000,-4043.0000
1752796559.151,1580.346,0.40171,1.78571,298061.00,3.25696,113320,51,-672.0000,-76.0000,-4027.0000
1752796559.249,1580.444,0.39011,1.79487,298061.00,3.35501,113377,51,-680.0000,-77.0000,-4043.0000
1752796559.367,1580.562,0.38889,1.79487,288772.00,3.46293,113154,51,-679.0000,-81.0000,-4036.0000
1752796559.482,1580.677,0.38950,1.79853,285231.00,3.50592,113037,51,-674.0000,-69.0000,-4045.0000
1752796559.597,1580.792,0.38889,1.79853,285231.00,3.50592,113065,51,-671.0000,-91.0000,-4033.0000
1752796559.715,1580.910,0.38767,1.79853,287337.00,3.48023,113040,51,-669.0000,-87.0000,-4033.0000
1752796559.833,1581.028,0.38767,1.80037,283873.00,3.52269,113071,51,-673.0000,-68.0000,-4037.0000
1752796559.978,1581.173,0.38523,1.80037,281481.00,3.53498,113154,51,-664.0000,-70.0000,-4029.0000
1752796560.103,1581.298,0.38462,1.80037,281481.00,3.55263,113245,51,-674.0000,-70.0000,-4042.0000
1752796560.285,1581.480,0.38523,1.80220,280189.00,3.56901,113237,51,-658.0000,-95.0000,-4039.0000
1752796560.466,1581.661,0.38400,1.80220,281414.00,3.55348,113293,51,-657.0000,-94.0000,-4048.0000
1752796560.581,1581.776,0.38400,1.80281,280929.00,3.55961,112986,51,-673.0000,-81.0000,-4048.0000
1752796560.753,1581.948,0.38400,1.80342,278369.00,3.59235,112904,51,-666.0000,-75.0000,-4029.0000
1752796560.923,1582.118,0.38217,1.80342,281050.00,3.55808,112884,51,-678.0000,-82.0000,-4044.0000
1752796561.085,1582.280,0.38278,1.80159,279037.00,3.58374,112957,51,-659.0000,-89.0000,-4041.0000
1752796561.297,1582.492,0.38217,1.80403,278488.00,3.56114,112970,51,-664.0000,-85.0000,-4034.0000
1752796561.398,1582.593,0.38278,1.80403,278488.00,3.59081,113056,51,-673.0000,-92.0000,-4020.0000
1752796561.524,1582.719,0.38156,1.80281,279467.00,3.58927,113151,51,-668.0000,-95.0000,-4031.0000
1752796561.603,1582.798,0.38217,1.80403,279467.00,3.57823,113162,51,-668.0000,-79.0000,-4039.0000
1752796561.716,1582.911,0.38095,1.80342,278488.00,3.59081,112869,51,-666.0000,-89.0000,-4043.0000
1752796561.835,1583.030,0.38339,1.80647,278798.00,3.58682,112867,51,-665.0000,-82.0000,-4031.0000
1752796561.937,1583.132,0.38339,1.80403,276533.00,3.61620,112859,51,-673.0000,-83.0000,-4039.0000
1752796562.096,1583.291,0.38339,1.80403,278608.00,3.57362,112876,51,-673.0000,-88.0000,-4045.0000
1752796562.195,1583.390,0.38278,1.80159,278608.00,3.58927,112948,51,-675.0000,-85.0000,-4040.0000
1752796562.324,1583.519,0.38217,1.80281,279587.00,3.56114,112980,51,-663.0000,-85.0000,-4036.0000
1752796562.443,1583.638,0.38278,1.80281,279948.00,3.57209,113020,51,-672.0000,-82.0000,-4038.0000
1752796562.541,1583.736,0.38339,1.80342,279948.00,3.57209,112889,51,-652.0000,-83.0000,-4027.0000
1752796562.669,1583.864,0.38095,1.80220,279587.00,3.57670,112818,51,-675.0000,-88.0000,-4032.0000
1752796562.814,1584.009,0.38278,1.80525,279518.00,3.57759,112841,51,-684.0000,-72.0000,-4035.0000
1752796562.958,1584.153,0.38339,1.80220,280499.00,3.56507,112841,51,-676.0000,-84.0000,-4034.0000
1752796563.065,1584.260,0.38339,1.80281,281481.00,3.55263,112876,51,-663.0000,-69.0000,-4035.0000
1752796563.177,1584.372,0.38400,1.80159,281845.00,3.54804,112948,51,-673.0000,-85.0000,-4045.0000
1752796563.303,1584.498,0.38462,1.80159,280620.00,3.56354,113044,51,-664.0000,-76.0000,-4040.0000
1752796563.407,1584.602,0.38523,1.80098,281845.00,3.55654,113056,51,-669.0000,-63.0000,-4034.0000
1752796563.502,1584.697,0.38645,1.80159,281414.00,3.54804,112757,51,-671.0000,-78.0000,-4029.0000
1752796563.607,1584.802,0.38584,1.80037,281414.00,3.55348,112737,51,-675.0000,-86.0000,-4020.0000
1752796563.702,1584.897,0.38767,1.79976,282520.00,3.53957,112704,51,-658.0000,-76.0000,-4030.0000
1752796563.805,1585.000,0.38706,1.79853,283441.00,3.52807,112726,51,-678.0000,-88.0000,-4036.0000
1752796563.975,1585.170,0.38767,1.79976,285108.00,3.50744,112813,51,-672.0000,-78.0000,-4041.0000
1752796564.120,1585.315,0.38828,1.79792,283441.00,3.52807,112878,51,-667.0000,-77.0000,-4043.0000
1752796564.245,1585.440,0.38706,1.79915,285231.00,3.50592,112904,51,-660.0000,-79.0000,-4048.0000
1752796564.400,1585.595,0.38889,1.79609,283996.00,3.52117,112963,51,-667.0000,-73.0000,-4035.0000
1752796564.599,1585.794,0.38889,1.79853,284798.00,3.49077,113042,51,-677.0000,-84.0000,-4032.0000
1752796564.710,1585.905,0.38706,1.80098,284798.00,3.51125,113005,51,-683.0000,-78.0000,-4035.0000
1752796564.810,1586.005,0.39011,1.79670,285355.00,3.50440,112844,51,-671.0000,-83.0000,-4033.0000
1752796564.962,1586.157,0.38828,1.79731,286718.00,3.48774,112802,51,-675.0000,-80.0000,-4048.0000
1752796565.062,1586.257,0.39072,1.79731,285231.00,3.50592,112830,51,-672.0000,-93.0000,-4033.0000
1752796565.205,1586.400,0.39072,1.79609,288647.00,3.48774,112934,51,-674.0000,-89.0000,-4041.0000
1752796565.342,1586.537,0.38828,1.79670,288647.00,3.46444,112952,51,-672.0000,-87.0000,-4032.0000
1752796565.483,1586.678,0.38950,1.79731,285912.00,3.48925,112995,51,-660.0000,-75.0000,-4047.0000
1752796565.674,1586.869,0.38950,1.79731,285912.00,3.49757,113120,51,-683.0000,-84.0000,-4039.0000
1752796565.783,1586.978,0.39133,1.79548,286718.00,3.48774,113195,51,-683.0000,-84.0000,-4039.0000
1752796565.926,1587.121,0.39072,1.79487,288087.00,3.47117,112948,51,-665.0000,-83.0000,-4034.0000
1752796566.019,1587.214,0.39072,1.79487,288521.00,3.46594,112964,51,-657.0000,-88.0000,-4040.0000
1752796566.165,1587.360,0.39133,1.79487,287961.00,3.47268,113036,51,-671.0000,-80.0000,-4043.0000
1752796566.275,1587.470,0.39072,1.79487,288647.00,3.46444,113070,51,-662.0000,-80.0000,-4042.0000
1752796566.380,1587.575,0.39194,1.79487,288772.00,3.46293,113109,51,-665.0000,-81.0000,-4041.0000
1752796566.512,1587.707,0.39072,1.79548,288396.00,3.46745,113177,51,-660.0000,-91.0000,-4037.0000
1752796566.714,1587.909,0.39133,1.79426,289333.00,3.45621,113229,51,-667.0000,-85.0000,-4027.0000
1752796566.850,1588.045,0.39255,1.79487,287902.00,3.47340,113027,51,-667.0000,-60.0000,-4038.0000
1752796567.045,1588.240,0.39255,1.79792,288647.00,3.46444,113069,51,-681.0000,-80.0000,-4036.0000
1752796567.225,1588.420,0.39133,1.79548,288212.00,3.46966,113045,51,-668.0000,-93.0000,-4035.0000
1752796567.375,1588.570,0.39377,1.79304,289024.00,3.45992,113139,51,-679.0000,-83.0000,-4042.0000
1752796567.508,1588.703,0.39133,1.79365,289208.00,3.45772,113193,51,-683.0000,-71.0000,-4033.0000
1752796567.644,1588.839,0.39377,1.79426,290274.00,3.44501,113255,51,-657.0000,-98.0000,-4045.0000
1752796567.782,1588.977,0.39316,1.79304,291274.00,3.46966,113343,51,-663.0000,-77.0000,-4033.0000
1752796567.873,1589.068,0.39377,1.79304,291274.00,3.43319,113359,51,-665.0000,-80.0000,-4034.0000
1752796567.992,1589.187,0.39255,1.79304,291401.00,3.43169,113121,51,-674.0000,-84.0000,-4035.0000
1752796568.106,1589.301,0.39255,1.79182,290584.00,3.44134,113084,51,-656.0000,-84.0000,-4032.0000
1752796568.219,1589.414,0.39377,1.79365,289459.00,3.45471,113100,51,-666.0000,-80.0000,-4035.0000
1752796568.327,1589.522,0.39499,1.79304,291274.00,3.43319,113175,51,-666.0000,-80.0000,-4035.0000
1752796568.469,1589.664,0.39377,1.79121,291091.00,3.43534,113235,51,-679.0000,-82.0000,-4040.0000
1752796568.674,1589.869,0.39316,1.79243,291655.00,3.42870,113281,51,-669.0000,-82.0000,-4039.0000
1752796568.791,1589.986,0.39194,1.79426,292146.00,3.42294,113369,51,-674.0000,-77.0000,-4040.0000
1752796568.913,1590.108,0.39072,1.79670,288714.00,3.46363,113086,51,-675.0000,-76.0000,-4042.0000
1752796569.068,1590.263,0.39194,1.79365,289586.00,3.45321,113071,51,-662.0000,-90.0000,-4037.0000
1752796569.190,1590.385,0.39438,1.79304,289082.00,3.45922,113029,51,-662.0000,-85.0000,-4042.0000
1752796569.320,1590.515,0.39377,1.79304,290964.00,3.43684,113053,51,-674.0000,-94.0000,-4037.0000
1752796569.446,1590.641,0.39621,1.79182,290837.00,3.43834,113107,51,-674.0000,-94.0000,-4037.0000
1752796569.601,1590.796,0.39683,1.78877,292475.00,3.41908,113128,51,-686.0000,-92.0000,-4036.0000
1752796569.700,1590.895,0.39377,1.79182,293736.00,3.40441,113208,51,-673.0000,-65.0000,-4035.0000
1752796569.856,1591.051,0.39499,1.78999,293607.00,3.40590,113269,51,-671.0000,-88.0000,-4031.0000
1752796569.963,1591.158,0.39621,1.78877,294870.00,3.39132,113081,51,-673.0000,-80.0000,-4042.0000
1752796570.129,1591.324,0.39683,1.78999,294741.00,3.39280,113066,51,-665.0000,-81.0000,-4047.0000
1752796570.267,1591.462,0.39560,1.78999,293916.00,3.40232,113102,51,-673.0000,-88.0000,-4036.0000
1752796570.492,1591.687,0.39499,1.79060,294174.00,3.39934,113071,51,-674.0000,-67.0000,-4044.0000
1752796570.647,1591.842,0.39744,1.78816,294045.00,3.40083,113148,51,-667.0000,-86.0000,-4025.0000
1752796570.777,1591.972,0.39744,1.78938,294741.00,3.38983,113254,51,-681.0000,-69.0000,-4046.0000
1752796570.863,1592.058,0.39621,1.78877,294741.00,3.39280,113291,51,-662.0000,-78.0000,-4045.0000
1752796571.004,1592.199,0.39805,1.78877,294303.00,3.39786,113197,51,-665.0000,-91.0000,-4036.0000
1752796571.101,1592.296,0.39560,1.78938,294432.00,3.39637,112699,51,-660.0000,-74.0000,-4037.0000
1752796571.253,1592.448,0.39805,1.78938,294612.00,3.39429,112683,51,-674.0000,-93.0000,-4035.0000
1752796571.382,1592.577,0.39683,1.78877,296137.00,3.37682,112782,51,-684.0000,-74.0000,-4036.0000
1752796571.506,1592.701,0.39683,1.78877,294741.00,3.39280,112806,51,-659.0000,-80.0000,-4031.0000
1752796571.616,1592.811,0.39683,1.78938,294303.00,3.39786,112854,51,-664.0000,-91.0000,-4036.0000
1752796571.727,1592.922,0.39621,1.78999,296137.00,3.37682,112931,51,-662.0000,-81.0000,-4036.0000
1752796571.858,1593.053,0.39621,1.78938,294432.00,3.39637,112991,51,-665.0000,-70.0000,-4037.0000
1752796571.991,1593.186,0.39683,1.78816,295438.00,3.38834,113080,51,-670.0000,-90.0000,-4056.0000
1752796572.077,1593.272,0.39744,1.78877,295438.00,3.38480,112929,51,-670.0000,-80.0000,-4051.0000
1752796572.208,1593.403,0.39927,1.78877,297145.00,3.36536,112770,51,-683.0000,-80.0000,-4035.0000
1752796572.300,1593.495,0.39866,1.78816,295698.00,3.38183,112761,51,-663.0000,-85.0000,-4040.0000
1752796572.506,1593.701,0.39805,1.78877,296397.00,3.37385,112780,51,-680.0000,-79.0000,-4053.0000
1752796572.665,1593.860,0.39805,1.78938,295129.00,3.37533,112825,51,-669.0000,-91.0000,-4031.0000
1752796572.791,1593.986,0.39683,1.78755,295129.00,3.38834,112988,51,-665.0000,-75.0000,-4041.0000
1752796572.904,1594.099,0.39927,1.78816,297668.00,3.35944,113020,51,-659.0000,-86.0000,-4051.0000
1752796573.026,1594.221,0.39805,1.78694,296267.00,3.37533,113055,51,-677.0000,-71.0000,-4035.0000
1752796573.107,1594.302,0.39927,1.78755,296967.00,3.36738,113117,51,-665.0000,-78.0000,-4042.0000
1752796573.200,1594.395,0.39866,1.78755,297097.00,3.36590,112812,51,-665.0000,-78.0000,-4042.0000
1752796573.352,1594.547,0.40110,1.78632,296967.00,3.36738,112761,51,-671.0000,-85.0000,-4036.0000
1752796573.480,1594.675,0.40049,1.78694,297228.00,3.36442,112785,51,-675.0000,-101.0000,-4029.0000
1752796573.597,1594.792,0.40171,1.78571,297930.00,3.35649,112752,51,-661.0000,-78.0000,-4049.0000
1752796573.723,1594.918,0.40049,1.78449,298942.00,3.34512,112800,51,-682.0000,-87.0000,-4045.0000
1752796573.853,1595.048,0.39927,1.78632,300661.00,3.32600,112848,51,-675.0000,-63.0000,-4032.0000
1752796573.979,1595.174,0.40049,1.78632,299515.00,3.34807,112885,51,-671.0000,-81.0000,-4032.0000
1752796574.104,1595.299,0.40049,1.78449,299515.00,3.33873,112982,51,-664.0000,-81.0000,-4034.0000
1752796574.219,1595.414,0.40110,1.78571,299338.00,3.35006,112774,51,-678.0000,-77.0000,-4042.0000
1752796574.347,1595.542,0.40110,1.78571,299338.00,3.34070,112738,51,-680.0000,-68.0000,-4039.0000
1752796574.463,1595.658,0.40110,1.78510,300353.00,3.32942,112753,51,-666.0000,-79.0000,-4040.0000
1752796574.586,1595.781,0.39988,1.78571,300927.00,3.32306,112714,51,-662.0000,-81.0000,-4036.0000
1752796574.727,1595.922,0.40049,1.78388,298942.00,3.34512,112829,51,-678.0000,-71.0000,-4046.0000
1752796574.822,1596.017,0.40171,1.78571,300220.00,3.33088,112894,51,-662.0000,-83.0000,-4047.0000
1752796574.932,1596.127,0.40232,1.78755,299338.00,3.34070,112884,51,-678.0000,-61.0000,-4041.0000
1752796575.141,1596.336,0.40171,1.78571,297752.00,3.35850,112959,51,-669.0000,-87.0000,-4049.0000
1752796575.289,1596.484,0.40232,1.78510,299338.00,3.34070,112728,51,-669.0000,-87.0000,-4049.0000
1752796575.517,1596.712,0.40171,1.78449,300044.00,3.33284,112709,51,-675.0000,-72.0000,-4036.0000
1752796575.648,1596.843,0.40171,1.78510,300618.00,3.32648,112760,51,-654.0000,-90.0000,-4038.0000
1752796575.776,1596.971,0.40232,1.78327,299911.00,3.33431,112778,51,-674.0000,-80.0000,-4039.0000
1752796575.878,1597.073,0.40415,1.78266,301193.00,3.32013,112843,51,-677.0000,-78.0000,-4038.0000
1752796576.017,1597.212,0.40293,1.78388,302745.00,3.30310,112938,51,-675.0000,-67.0000,-4042.0000
1752796576.182,1597.377,0.40354,1.78327,301635.00,3.31526,113025,51,-680.0000,-72.0000,-4045.0000
1752796576.281,1597.476,0.40232,1.78327,300884.00,3.32354,112754,51,-680.0000,-72.0000,-4045.0000
1752796576.436,1597.631,0.40476,1.78388,301768.00,3.31380,112690,51,-673.0000,-63.0000,-4042.0000
1752796576.582,1597.777,0.40415,1.78327,302076.00,3.31042,112753,51,-668.0000,-91.0000,-4031.0000
1752796576.696,1597.891,0.40476,1.78449,301193.00,3.32013,112750,51,-678.0000,-72.0000,-4042.0000
1752796576.822,1598.017,0.40110,1.78388,301193.00,3.32013,112829,51,-669.0000,-86.0000,-4030.0000
1752796576.956,1598.151,0.40293,1.78144,302611.00,3.30456,112843,51,-676.0000,-80.0000,-4041.0000
1752796577.140,1598.335,0.40232,1.78205,301193.00,3.32013,112896,51,-675.0000,-97.0000,-4036.0000
1752796577.361,1598.556,0.40415,1.78205,302344.00,3.30749,112981,51,-669.0000,-80.0000,-4050.0000
1752796577.547,1598.742,0.40354,1.78205,301943.00,3.31188,112694,51,-665.0000,-87.0000,-4035.0000
1752796577.699,1598.894,0.40354,1.78327,302611.00,3.30456,112643,51,-675.0000,-79.0000,-4042.0000
1752796577.881,1599.076,0.40476,1.78327,303457.00,3.29536,112612,51,-685.0000,-86.0000,-4029.0000
1752796577.972,1599.167,0.40415,1.78144,300309.00,3.32990,112614,51,-685.0000,-86.0000,-4029.0000
1752796578.103,1599.298,0.40415,1.78144,304614.00,3.29055,112650,51,-673.0000,-96.0000,-4044.0000
1752796578.218,1599.413,0.40415,1.78083,304614.00,3.28284,112797,51,-681.0000,-67.0000,-4035.0000
1752796578.401,1599.596,0.40415,1.78266,303188.00,3.29828,112830,51,-675.0000,-67.0000,-4047.0000
1752796578.576,1599.771,0.40476,1.78083,303188.00,3.30310,112911,51,-681.0000,-74.0000,-4035.0000
1752796578.800,1599.995,0.40537,1.78022,303188.00,3.29828,112618,51,-673.0000,-71.0000,-4033.0000
1752796578.953,1600.148,0.40598,1.78083,305328.00,3.27516,112576,51,-669.0000,-82.0000,-4053.0000
1752796579.082,1600.277,0.40598,1.78083,304884.00,3.27993,112666,51,-663.0000,-73.0000,-4054.0000
1752796579.297,1600.492,0.40720,1.78144,304575.00,3.27371,112700,51,-667.0000,-73.0000,-4039.0000
1752796579.418,1600.613,0.40476,1.78083,304575.00,3.28325,112763,51,-665.0000,-85.0000,-4028.0000
1752796579.532,1600.727,0.40659,1.77900,306761.00,3.28284,112886,51,-663.0000,-76.0000,-4026.0000
1752796579.664,1600.859,0.40476,1.77961,306761.00,3.25986,112772,51,-662.0000,-98.0000,-4057.0000
1752796579.825,1601.020,0.40781,1.77900,304884.00,3.27993,112682,51,-669.0000,-87.0000,-4038.0000
1752796579.967,1601.162,0.40720,1.77961,308062.00,3.26276,112714,51,-674.0000,-95.0000,-4045.0000
1752796580.111,1601.306,0.40720,1.77900,308062.00,3.24610,112697,51,-667.0000,-86.0000,-4049.0000
1752796580.245,1601.440,0.40659,1.77961,308199.00,3.25080,112765,51,-665.0000,-85.0000,-4044.0000
1752796580.374,1601.569,0.40842,1.77900,308199.00,3.24465,112813,51,-675.0000,-75.0000,-4029.0000
1752796580.509,1601.704,0.40781,1.77839,306761.00,3.25986,112869,51,-676.0000,-81.0000,-4035.0000
1752796580.617,1601.812,0.40781,1.77900,307206.00,3.25514,112943,51,-681.0000,-81.0000,-4041.0000
1752796580.738,1601.933,0.40904,1.77778,308920.00,3.23708,112982,51,-668.0000,-86.0000,-4049.0000
1752796580.835,1602.030,0.40781,1.77595,308337.00,3.24320,112761,51,-668.0000,-86.0000,-4049.0000
1752796580.955,1602.150,0.40904,1.77595,309950.00,3.22632,112740,51,-671.0000,-65.0000,-4025.0000
1752796581.114,1602.309,0.41026,1.77534,310366.00,3.22200,112748,51,-678.0000,-68.0000,-4038.0000
1752796581.243,1602.438,0.40965,1.77595,310813.00,3.21737,112807,51,-678.0000,-88.0000,-4038.0000
1752796581.354,1602.549,0.40904,1.77473,310058.00,3.22520,112982,51,-683.0000,-76.0000,-4046.0000
1752796581.461,1602.656,0.40904,1.77595,309334.00,3.23275,112961,51,-685.0000,-89.0000,-4043.0000
1752796581.592,1602.787,0.41026,1.77961,310058.00,3.22520,113002,51,-674.0000,-87.0000,-4052.0000
1752796581.726,1602.921,0.40720,1.77839,304209.00,3.22056,113060,51,-671.0000,-85.0000,-4037.0000
1752796581.851,1603.046,0.40415,1.78266,304209.00,3.28721,113123,51,-660.0000,-79.0000,-4044.0000
1752796581.991,1603.186,0.38584,1.79915,287961.00,3.47268,112867,51,-676.0000,-86.0000,-4042.0000
1752796582.168,1603.363,0.38462,1.79915,283628.00,3.52574,112741,51,-669.0000,-82.0000,-4036.0000
1752796582.327,1603.522,0.40415,1.78327,283383.00,3.52878,112789,51,-671.0000,-75.0000,-4037.0000
1752796582.509,1603.704,0.40476,1.78083,304749.00,3.28139,112800,51,-685.0000,-74.0000,-4047.0000
1752796582.636,1603.831,0.40598,1.77900,305328.00,3.27516,112748,51,-660.0000,-87.0000,-4049.0000
1752796582.733,1603.928,0.40720,1.78083,305057.00,3.27807,112786,51,-679.0000,-83.0000,-4048.0000
1752796582.865,1604.060,0.40598,1.77900,306044.00,3.26750,112841,51,-659.0000,-86.0000,-4047.0000
1752796582.953,1604.148,0.40842,1.77839,305464.00,3.27371,112900,51,-667.0000,-65.0000,-4043.0000
1752796583.078,1604.273,0.41087,1.77411,310644.00,3.21912,112803,51,-671.0000,-84.0000,-4022.0000
1752796583.184,1604.379,0.41270,1.77350,309888.00,3.22697,112679,51,-665.0000,-87.0000,-4048.0000
1752796583.331,1604.526,0.41331,1.77473,313414.00,3.19067,112638,51,-664.0000,-71.0000,-4046.0000
1752796583.473,1604.668,0.41331,1.77411,312965.00,3.19524,112605,51,-672.0000,-97.0000,-4034.0000
1752796583.636,1604.831,0.41026,1.77595,312965.00,3.19524,112605,51,-673.0000,-79.0000,-4046.0000
1752796583.741,1604.936,0.40904,1.77717,310505.00,3.22056,112620,51,-675.0000,-73.0000,-4035.0000
1752796583.875,1605.070,0.40720,1.77839,309058.00,3.23563,112728,51,-673.0000,-83.0000,-4047.0000
1752796583.986,1605.181,0.39194,1.79365,289895.00,3.23563,112738,51,-678.0000,-80.0000,-4032.0000
1752796584.106,1605.301,0.38950,1.79609,289895.00,3.44952,112512,51,-683.0000,-81.0000,-4044.0000
1752796584.212,1605.407,0.39011,1.79609,286718.00,3.48774,112488,51,-675.0000,-76.0000,-4026.0000
1752796584.351,1605.546,0.38950,1.79670,286036.00,3.49606,112428,51,-664.0000,-90.0000,-4043.0000
1752796584.580,1605.775,0.39072,1.79548,285912.00,3.47419,112412,51,-665.0000,-82.0000,-4035.0000
1752796584.712,1605.907,0.38889,1.79487,285912.00,3.49757,112383,51,-672.0000,-77.0000,-4033.0000
1752796584.875,1606.070,0.38950,1.79243,288145.00,3.47046,112464,51,-680.0000,-73.0000,-4047.0000
1752796584.970,1606.165,0.39011,1.79487,290513.00,3.44218,112464,51,-679.0000,-71.0000,-4027.0000
1752796585.125,1606.320,0.39072,1.79609,288087.00,3.47117,112554,51,-662.0000,-85.0000,-4058.0000
1752796585.227,1606.422,0.39133,1.79426,287402.00,3.47944,112343,51,-680.0000,-76.0000,-4033.0000
1752796585.365,1606.560,0.39072,1.79548,289208.00,3.45772,112174,51,-677.0000,-75.0000,-4041.0000
1752796585.485,1606.680,0.39255,1.79426,288521.00,3.46594,112131,51,-679.0000,-75.0000,-4042.0000
1752796585.618,1606.813,0.39072,1.79426,290331.00,3.44434,112176,51,-678.0000,-69.0000,-4042.0000
1752796585.740,1606.935,0.39194,1.79426,290331.00,3.44434,112200,51,-677.0000,-90.0000,-4038.0000
1752796585.894,1607.089,0.39377,1.79426,290710.00,3.43984,112230,51,-683.0000,-88.0000,-4027.0000
1752796586.025,1607.220,0.39194,1.79304,289769.00,3.45102,112328,51,-660.0000,-90.0000,-4049.0000
1752796586.170,1607.365,0.39377,1.79243,290457.00,3.44284,112444,51,-669.0000,-83.0000,-4038.0000
1752796586.343,1607.538,0.39560,1.79243,290148.00,3.44651,112457,51,-662.0000,-80.0000,-4042.0000
1752796586.467,1607.662,0.39438,1.79243,292657.00,3.41696,112109,51,-680.0000,-88.0000,-4049.0000
1752796586.572,1607.767,0.39438,1.79182,291528.00,3.43020,111994,51,-692.0000,-75.0000,-4036.0000
1752796586.730,1607.925,0.39805,1.78694,294870.00,3.39132,111955,51,-680.0000,-79.0000,-4039.0000
1752796586.848,1608.043,0.39744,1.78999,295747.00,3.38126,111924,51,-685.0000,-73.0000,-4045.0000
1752796586.984,1608.179,0.39866,1.78816,294870.00,3.39132,111956,51,-664.0000,-93.0000,-4043.0000
1752796587.147,1608.342,0.39438,1.79121,298239.00,3.35301,112001,51,-673.0000,-82.0000,-4044.0000
1752796587.299,1608.494,0.39621,1.78999,292785.00,3.41547,112075,51,-669.0000,-71.0000,-4039.0000
1752796587.460,1608.655,0.39683,1.79060,294174.00,3.39934,112025,51,-674.0000,-82.0000,-4034.0000
1752796587.612,1608.807,0.39621,1.78999,294174.00,3.40441,111877,51,-661.0000,-80.0000,-4037.0000
1752796587.694,1608.889,0.39499,1.78938,294174.00,3.39934,111740,51,-663.0000,-77.0000,-4034.0000
1752796587.817,1609.012,0.39744,1.78999,294483.00,3.39578,111717,51,-673.0000,-80.0000,-4047.0000
1752796587.951,1609.146,0.39683,1.78999,293916.00,3.40232,111817,51,-663.0000,-83.0000,-4046.0000
1752796588.139,1609.334,0.39621,1.78694,294612.00,3.39429,111914,51,-672.0000,-85.0000,-4054.0000
1752796588.275,1609.470,0.39621,1.79243,295568.00,3.38628,112029,51,-675.0000,-86.0000,-4050.0000
1752796588.354,1609.549,0.39744,1.78938,295568.00,3.38331,111984,51,-675.0000,-86.0000,-4050.0000
1752796588.470,1609.665,0.39621,1.78938,295000.00,3.38983,111730,51,-677.0000,-82.0000,-4031.0000
1752796588.603,1609.798,0.39683,1.78755,295309.00,3.38628,111735,51,-662.0000,-83.0000,-4041.0000
1752796588.737,1609.932,0.39805,1.78755,295877.00,3.37978,111678,51,-667.0000,-79.0000,-4049.0000
1752796588.848,1610.043,0.39805,1.78755,296397.00,3.37385,111693,51,-679.0000,-88.0000,-4039.0000
1752796588.996,1610.191,0.40110,1.78694,296527.00,3.37237,111739,51,-675.0000,-69.0000,-4040.0000
1752796589.089,1610.284,0.39988,1.78510,297930.00,3.35649,111841,51,-664.0000,-74.0000,-4038.0000
1752796589.193,1610.388,0.39805,1.78816,299515.00,3.33873,111855,51,-673.0000,-81.0000,-4043.0000
1752796589.308,1610.503,0.40049,1.78571,296919.00,3.36792,111976,51,-673.0000,-81.0000,-4043.0000
1752796589.461,1610.656,0.39866,1.78694,297668.00,3.35944,111634,51,-667.0000,-88.0000,-4042.0000
1752796589.635,1610.830,0.40049,1.78632,297537.00,3.36092,111467,51,-673.0000,-76.0000,-4054.0000
1752796589.750,1610.945,0.40110,1.78388,300751.00,3.32501,111458,51,-681.0000,-62.0000,-4041.0000
1752796589.905,1611.100,0.40232,1.78388,301768.00,3.31380,111480,51,-681.0000,-70.0000,-4032.0000
1752796589.983,1611.178,0.41026,1.77473,300353.00,3.32942,111490,51,-681.0000,-70.0000,-4032.0000
1752796590.121,1611.316,0.41087,1.77473,311677.00,3.20844,111622,51,-670.0000,-73.0000,-4047.0000
1752796590.430,1611.625,0.41148,1.77656,311817.00,3.20701,111675,51,-676.0000,-92.0000,-4040.0000
1752796590.561,1611.756,0.41148,1.77473,310952.00,3.21593,111789,51,-672.0000,-77.0000,-4045.0000
1752796590.673,1611.868,0.41148,1.77595,310922.00,3.21624,111443,51,-665.0000,-78.0000,-4045.0000
1752796590.800,1611.995,0.41209,1.77534,310783.00,3.21768,111381,51,-679.0000,-87.0000,-4039.0000
1752796591.002,1612.197,0.41270,1.77289,312684.00,3.19811,111363,51,-677.0000,-85.0000,-4039.0000
1752796591.170,1612.365,0.40965,1.77717,313133.00,3.19353,111423,51,-683.0000,-79.0000,-4036.0000
1752796591.342,1612.537,0.40476,1.78022,305193.00,3.22200,111537,51,-673.0000,-79.0000,-4036.0000
1752796591.408,1612.603,0.40781,1.78144,305193.00,3.27661,111645,51,-673.0000,-79.0000,-4036.0000
1752796591.520,1612.715,0.40537,1.78022,304711.00,3.28180,111756,51,-670.0000,-58.0000,-4050.0000
1752796591.683,1612.878,0.40720,1.78083,307616.00,3.25080,111430,51,-677.0000,-82.0000,-4043.0000
1752796591.820,1613.015,0.40598,1.78022,305193.00,3.27661,111576,51,-660.0000,-80.0000,-4031.0000
1752796591.960,1613.155,0.40659,1.77961,305735.00,3.27080,111548,51,-688.0000,-93.0000,-4039.0000
1752796592.120,1613.315,0.40659,1.78022,306044.00,3.26750,111509,51,-685.0000,-78.0000,-4033.0000
1752796592.239,1613.434,0.40598,1.77961,305908.00,3.26895,111565,51,-673.0000,-74.0000,-4041.0000
1752796592.350,1613.545,0.40781,1.77900,306044.00,3.26750,111617,51,-684.0000,-96.0000,-4037.0000
1752796592.491,1613.686,0.40781,1.78022,307034.00,3.25696,111765,51,-666.0000,-81.0000,-4048.0000
1752796592.609,1613.804,0.41209,1.77473,306044.00,3.26750,111884,51,-674.0000,-77.0000,-4034.0000
1752796592.744,1613.939,0.41270,1.77228,312096.00,3.20413,111718,51,-660.0000,-96.0000,-4037.0000
1752796592.853,1614.048,0.41270,1.77289,314734.00,3.17728,111623,51,-669.0000,-84.0000,-4028.0000
1752796592.984,1614.179,0.41087,1.77350,314144.00,3.18325,111582,51,-673.0000,-71.0000,-4052.0000
1752796593.343,1614.538,0.40965,1.77595,310366.00,3.22200,111596,51,-662.0000,-77.0000,-4026.0000
1752796593.461,1614.656,0.41148,1.77411,311230.00,3.21305,111651,51,-672.0000,-81.0000,-4042.0000
1752796593.562,1614.757,0.41270,1.77411,312544.00,3.19954,111930,51,-682.0000,-64.0000,-4048.0000
1752796593.665,1614.860,0.41148,1.77411,312825.00,3.19667,112011,51,-671.0000,-85.0000,-4041.0000
1752796593.780,1614.975,0.41209,1.77350,313273.00,3.19954,111834,51,-685.0000,-80.0000,-4036.0000
1752796593.899,1615.094,0.41514,1.77411,317960.00,3.19210,111798,51,-680.0000,-90.0000,-4029.0000
1752796594.030,1615.225,0.41636,1.77045,317960.00,3.14505,111712,51,-671.0000,-104.0000,-4039.0000
1752796594.155,1615.350,0.41758,1.76679,319150.00,3.13331,111633,51,-683.0000,-83.0000,-4046.0000
1752796594.273,1615.468,0.42002,1.76557,320036.00,3.12465,111669,51,-661.0000,-83.0000,-4052.0000
1752796594.388,1615.583,0.42002,1.76923,320778.00,3.11741,111768,51,-671.0000,-84.0000,-4048.0000
1752796594.522,1615.717,0.42002,1.76740,320778.00,3.11741,111818,51,-655.0000,-77.0000,-4051.0000
1752796594.685,1615.880,0.41514,1.76923,320923.00,3.10864,111712,51,-668.0000,-78.0000,-4021.0000
1752796594.836,1616.031,0.41819,1.76618,320923.00,3.11600,111989,51,-675.0000,-80.0000,-4043.0000
1752796595.020,1616.215,0.41331,1.77228,318719.00,3.13756,111968,51,-665.0000,-82.0000,-4052.0000
1752796595.167,1616.362,0.41331,1.77106,314876.00,3.17585,111829,51,-679.0000,-67.0000,-4038.0000
1752796595.293,1616.488,0.41270,1.77473,313836.00,3.18637,111879,51,-676.0000,-87.0000,-4036.0000
1752796595.400,1616.595,0.41331,1.77289,313695.00,3.18780,111916,51,-676.0000,-87.0000,-4036.0000
1752796595.538,1616.733,0.41331,1.77350,314144.00,3.18325,111994,51,-666.0000,-88.0000,-4040.0000
1752796595.711,1616.906,0.41514,1.77228,311788.00,3.20730,112021,51,-672.0000,-83.0000,-4047.0000
1752796595.863,1617.058,0.41636,1.77045,316059.00,3.18468,112088,51,-670.0000,-78.0000,-4039.0000
1752796596.069,1617.264,0.41575,1.77045,316059.00,3.16396,112148,51,-664.0000,-90.0000,-4041.0000
1752796596.258,1617.453,0.41453,1.77045,318719.00,3.13756,112013,51,-673.0000,-83.0000,-4033.0000
1752796596.431,1617.626,0.41453,1.77045,317673.00,3.14789,112053,51,-671.0000,-79.0000,-4039.0000
1752796596.533,1617.728,0.41697,1.76862,319150.00,3.14342,112084,51,-665.0000,-81.0000,-4034.0000
1752796596.670,1617.865,0.41697,1.76923,319150.00,3.13331,112183,51,-670.0000,-87.0000,-4034.0000
1752796596.801,1617.996,0.41575,1.76984,317673.00,3.14789,112240,51,-681.0000,-90.0000,-4032.0000
1752796596.923,1618.118,0.41575,1.76923,317673.00,3.14789,112292,51,-678.0000,-81.0000,-4031.0000
1752796597.076,1618.271,0.41636,1.76923,319006.00,3.13473,112104,51,-671.0000,-76.0000,-4035.0000
1752796597.190,1618.385,0.41636,1.76923,317816.00,3.14647,112050,51,-681.0000,-78.0000,-4031.0000
1752796597.309,1618.504,0.41697,1.76801,316936.00,3.15520,112034,51,-678.0000,-86.0000,-4045.0000
1752796597.412,1618.607,0.42002,1.76435,319746.00,3.12747,112035,51,-667.0000,-76.0000,-4052.0000
1752796597.607,1618.802,0.41880,1.76679,321376.00,3.11161,112078,51,-681.0000,-88.0000,-4047.0000
1752796597.726,1618.921,0.41880,1.76679,321376.00,3.11161,112138,51,-653.0000,-78.0000,-4030.0000
1752796597.860,1619.055,0.42247,1.76374,322413.00,3.10160,112239,51,-685.0000,-82.0000,-4055.0000
1752796598.012,1619.207,0.42674,1.75763,325261.00,3.07445,112360,51,-677.0000,-74.0000,-4025.0000
1752796598.209,1619.404,0.42857,1.75763,332078.00,3.01133,112073,51,-667.0000,-82.0000,-4041.0000
1752796598.320,1619.515,0.42979,1.75702,333915.00,2.99477,111972,51,-667.0000,-82.0000,-4041.0000
1752796598.435,1619.630,0.42918,1.75519,333762.00,2.99614,111932,51,-671.0000,-65.0000,-4034.0000
1752796598.581,1619.776,0.42735,1.75885,333916.00,2.99476,112002,51,-658.0000,-82.0000,-4032.0000
1752796598.726,1619.921,0.42979,1.75519,332843.00,3.00442,112066,51,-658.0000,-82.0000,-4032.0000
1752796598.961,1620.156,0.42796,1.75885,335605.00,2.97969,112164,51,-673.0000,-78.0000,-4030.0000
1752796599.156,1620.351,0.42491,1.75946,331467.00,3.01688,112222,51,-655.0000,-75.0000,-4052.0000
1752796599.309,1620.504,0.42674,1.75885,331164.00,3.01965,112101,51,-683.0000,-75.0000,-4041.0000
1752796599.496,1620.691,0.42491,1.76190,331164.00,3.01965,112100,51,-663.0000,-75.0000,-4039.0000
1752796599.597,1620.792,0.42308,1.76129,328127.00,3.04759,112138,51,-663.0000,-75.0000,-4039.0000
1752796599.748,1620.943,0.42430,1.76190,327828.00,3.05038,112232,51,-676.0000,-70.0000,-4048.0000
1752796599.853,1621.048,0.42491,1.76068,330403.00,3.02661,112271,51,-680.0000,-69.0000,-4023.0000
1752796599.975,1621.170,0.42430,1.76313,326767.00,3.04058,112262,51,-688.0000,-77.0000,-4045.0000
1752796600.100,1621.295,0.42430,1.76190,327821.00,3.06028,112419,51,-665.0000,-92.0000,-4052.0000
1752796600.197,1621.392,0.42430,1.76007,327821.00,3.05044,112372,51,-663.0000,-90.0000,-4050.0000
1752796600.316,1621.511,0.42552,1.76190,328734.00,3.04063,112296,51,-660.0000,-80.0000,-4048.0000
1752796600.440,1621.635,0.42491,1.76007,328734.00,3.04197,112294,51,-684.0000,-97.0000,-4036.0000
1752796600.557,1621.752,0.42430,1.76068,328884.00,3.04058,112280,51,-676.0000,-84.0000,-4038.0000
1752796600.666,1621.861,0.42613,1.75702,330403.00,3.02661,112327,51,-678.0000,-93.0000,-4041.0000
1752796600.806,1622.001,0.42613,1.75946,332844.00,3.00441,112390,51,-671.0000,-82.0000,-4046.0000
1752796600.932,1622.127,0.42613,1.76007,330403.00,3.02661,112466,51,-684.0000,-60.0000,-4054.0000
1752796601.101,1622.296,0.42735,1.75824,329794.00,3.03220,112519,51,-667.0000,-87.0000,-4032.0000
1752796601.278,1622.473,0.42796,1.75824,332385.00,3.00856,112597,51,-677.0000,-80.0000,-4024.0000
1752796601.390,1622.585,0.42674,1.75702,332078.00,3.01133,112302,51,-681.0000,-83.0000,-4033.0000
1752796601.513,1622.708,0.43468,1.75214,332843.00,3.00442,112230,51,-658.0000,-81.0000,-4044.0000
1752796601.655,1622.850,0.43895,1.74786,339944.00,2.94166,112086,51,-668.0000,-80.0000,-4036.0000
1752796601.760,1622.955,0.43895,1.74725,341980.00,2.92414,112028,51,-687.0000,-68.0000,-4041.0000
1752796601.881,1623.076,0.43895,1.74603,345268.00,2.89630,112028,51,-680.0000,-93.0000,-4035.0000
1752796602.017,1623.212,0.44078,1.74664,346847.00,2.88311,112039,51,-670.0000,-90.0000,-4025.0000
1752796602.126,1623.321,0.44078,1.74542,347171.00,2.88042,112034,51,-668.0000,-88.0000,-4038.0000
1752796602.285,1623.480,0.43956,1.74481,349859.00,2.85829,112112,51,-673.0000,-83.0000,-4042.0000
1752796602.437,1623.632,0.43895,1.74420,348900.00,2.86615,111824,51,-665.0000,-74.0000,-4042.0000
1752796602.550,1623.745,0.44200,1.74359,350961.00,2.84932,111651,51,-675.0000,-72.0000,-4045.0000
1752796602.690,1623.885,0.44139,1.74420,350023.00,2.85179,111522,51,-684.0000,-76.0000,-4037.0000
1752796602.807,1624.002,0.44200,1.74420,350023.00,2.85695,111556,51,-673.0000,-86.0000,-4037.0000
1752796602.940,1624.135,0.44139,1.74481,350468.00,2.85333,111651,51,-665.0000,-93.0000,-4038.0000
1752796603.083,1624.278,0.44322,1.74115,351455.00,2.84531,111769,51,-678.0000,-93.0000,-4041.0000
1752796603.198,1624.393,0.44261,1.74237,353527.00,2.82863,111841,51,-682.0000,-64.0000,-4044.0000
1752796603.329,1624.524,0.44261,1.74298,352090.00,2.84018,111914,51,-674.0000,-75.0000,-4027.0000
1752796603.527,1624.722,0.44383,1.74298,352891.00,2.83373,111799,51,-682.0000,-73.0000,-4041.0000
1752796603.655,1624.850,0.44200,1.74176,354498.00,2.82089,111722,51,-687.0000,-84.0000,-4048.0000
1752796603.802,1624.997,0.44383,1.74054,352559.00,2.83640,111637,51,-677.0000,-80.0000,-4042.0000
1752796603.961,1625.156,0.44383,1.74115,352587.00,2.82222,111612,51,-644.0000,-82.0000,-4048.0000
1752796604.113,1625.308,0.44383,1.73993,352587.00,2.83618,111628,51,-681.0000,-86.0000,-4043.0000
1752796604.250,1625.445,0.44444,1.74054,354969.00,2.81714,111716,51,-667.0000,-83.0000,-4040.0000
1752796604.393,1625.588,0.44444,1.74054,354498.00,2.82089,111814,51,-666.0000,-86.0000,-4040.0000
1752796604.528,1625.723,0.44567,1.74298,354498.00,2.82089,111900,51,-673.0000,-82.0000,-4046.0000
1752796604.737,1625.932,0.44567,1.73993,355136.00,2.81582,111901,51,-681.0000,-81.0000,-4042.0000
1752796604.886,1626.081,0.44505,1.73932,353831.00,2.82620,111752,51,-662.0000,-91.0000,-4046.0000
1752796605.010,1626.205,0.44689,1.73993,355775.00,2.81076,111802,51,-670.0000,-98.0000,-4045.0000
1752796605.139,1626.334,0.44750,1.73748,355807.00,2.81051,111806,51,-666.0000,-73.0000,-4035.0000
1752796605.274,1626.469,0.44628,1.73993,358542.00,2.78907,111855,51,-669.0000,-85.0000,-4044.0000
1752796605.380,1626.575,0.44567,1.73993,355639.00,2.81184,111944,51,-666.0000,-67.0000,-4045.0000
1752796605.503,1626.698,0.44811,1.73810,355471.00,2.81316,112010,51,-677.0000,-64.0000,-4029.0000
1752796605.634,1626.829,0.44872,1.73687,357899.00,2.79408,112121,51,-683.0000,-75.0000,-4029.0000
1752796605.744,1626.939,0.44811,1.73626,359052.00,2.78511,112025,51,-676.0000,-83.0000,-4043.0000
1752796605.902,1627.097,0.44811,1.73687,358372.00,2.78511,111920,51,-673.0000,-94.0000,-4035.0000
1752796606.001,1627.196,0.44933,1.73687,358372.00,2.79039,111863,51,-674.0000,-81.0000,-4033.0000
1752796606.104,1627.299,0.44994,1.73504,361158.00,2.76887,111815,51,-665.0000,-80.0000,-4052.0000
1752796606.244,1627.439,0.44933,1.73626,361805.00,2.76392,111789,51,-664.0000,-90.0000,-4053.0000
1752796606.336,1627.531,0.45055,1.73382,362927.00,2.75537,111964,51,-668.0000,-79.0000,-4039.0000
1752796606.438,1627.633,0.44994,1.73443,363273.00,2.75275,111985,51,-665.0000,-69.0000,-4037.0000
1752796606.541,1627.736,0.44994,1.73443,362452.00,2.75898,112089,51,-667.0000,-86.0000,-4034.0000
1752796606.647,1627.842,0.45299,1.73321,363273.00,2.75275,111924,51,-669.0000,-97.0000,-4038.0000
1752796606.750,1627.945,0.45177,1.73382,363446.00,2.75144,111844,51,-682.0000,-104.0000,-4050.0000
1752796606.886,1628.081,0.45299,1.73138,365616.00,2.73511,111826,51,-661.0000,-77.0000,-4045.0000
1752796607.011,1628.206,0.45238,1.73199,366571.00,2.72798,111850,51,-673.0000,-75.0000,-4037.0000
1752796607.090,1628.285,0.45360,1.73016,364616.00,2.74261,111935,51,-673.0000,-75.0000,-4037.0000
1752796607.201,1628.396,0.45421,1.73199,368053.00,2.71700,112013,51,-662.0000,-79.0000,-4039.0000
1752796607.331,1628.526,0.45360,1.73199,366268.00,2.73024,112142,51,-649.0000,-86.0000,-4039.0000
1752796607.561,1628.756,0.45360,1.73138,366093.00,2.73154,112016,51,-674.0000,-77.0000,-4039.0000
1752796607.697,1628.892,0.45543,1.73016,366746.00,2.72668,112016,51,-661.0000,-84.0000,-4039.0000
1752796607.856,1629.051,0.45421,1.72955,368582.00,2.71310,112030,51,-675.0000,-86.0000,-4031.0000
1752796607.989,1629.184,0.45421,1.72955,368103.00,2.71663,112155,51,-675.0000,-79.0000,-4037.0000
1752796608.150,1629.345,0.45543,1.73077,368884.00,2.71087,112242,51,-666.0000,-89.0000,-4040.0000
1752796608.285,1629.480,0.45726,1.72955,369769.00,2.70828,112303,51,-676.0000,-80.0000,-4039.0000
1752796608.400,1629.595,0.45726,1.72833,369769.00,2.70439,112098,51,-665.0000,-70.0000,-4030.0000
1752796608.549,1629.744,0.45665,1.72894,370605.00,2.69829,112110,51,-673.0000,-63.0000,-4052.0000
1752796608.697,1629.892,0.45788,1.72894,370249.00,2.70088,112113,51,-666.0000,-85.0000,-4039.0000
1752796608.816,1630.011,0.45788,1.72833,371085.00,2.69480,112152,51,-675.0000,-88.0000,-4054.0000
1752796609.009,1630.204,0.45726,1.72833,370071.00,2.67705,112166,51,-669.0000,-79.0000,-4046.0000
1752796609.132,1630.327,0.45849,1.72833,370071.00,2.70218,112231,51,-678.0000,-75.0000,-4041.0000
1752796609.234,1630.429,0.45849,1.72711,369947.00,2.70309,112279,51,-677.0000,-80.0000,-4053.0000
1752796609.354,1630.549,0.45849,1.72650,372762.00,2.68267,112143,51,-677.0000,-80.0000,-4053.0000
1752796609.477,1630.672,0.45971,1.72711,373423.00,2.67793,112030,51,-659.0000,-82.0000,-4034.0000
1752796609.605,1630.800,0.45910,1.72711,374084.00,2.67319,111979,51,-675.0000,-86.0000,-4037.0000
1752796609.732,1630.927,0.45971,1.72344,374445.00,2.67062,111997,51,-670.0000,-86.0000,-4028.0000
1752796609.824,1631.019,0.45910,1.72650,375048.00,2.66632,112006,51,-672.0000,-84.0000,-4036.0000
1752796610.025,1631.220,0.46032,1.72650,370302.00,2.70049,112144,51,-674.0000,-87.0000,-4040.0000
1752796610.172,1631.367,0.46154,1.72589,376982.00,2.65264,112272,51,-672.0000,-79.0000,-4042.0000
1752796610.303,1631.498,0.45971,1.72405,374927.00,2.66718,112335,51,-670.0000,-66.0000,-4030.0000
1752796610.447,1631.642,0.46215,1.72527,375953.00,2.65990,112130,51,-664.0000,-82.0000,-4044.0000
1752796610.557,1631.752,0.46032,1.72405,375833.00,2.66075,112051,51,-666.0000,-82.0000,-4025.0000
1752796610.666,1631.861,0.46154,1.72344,376436.00,2.65649,112052,51,-682.0000,-92.0000,-4036.0000
1752796610.875,1632.070,0.46032,1.72344,376737.00,2.65437,112114,51,-674.0000,-91.0000,-4038.0000
1752796610.995,1632.190,0.46154,1.72283,378865.00,2.66890,112171,51,-661.0000,-69.0000,-4037.0000
1752796611.134,1632.329,0.46215,1.72405,378865.00,2.63946,112264,51,-659.0000,-77.0000,-4042.0000
1752796611.243,1632.438,0.46276,1.72283,380689.00,2.62682,112345,51,-673.0000,-80.0000,-4038.0000
1752796611.369,1632.564,0.46215,1.72222,378682.00,2.64074,112427,51,-661.0000,-77.0000,-4029.0000
1752796611.500,1632.695,0.46276,1.72222,379166.00,2.63736,112278,51,-677.0000,-85.0000,-4042.0000
1752796611.639,1632.834,0.46215,1.72283,377466.00,2.64924,112296,51,-662.0000,-89.0000,-4045.0000
1752796611.758,1632.953,0.46398,1.72161,378498.00,2.64202,112279,51,-674.0000,-77.0000,-4045.0000
1752796611.880,1633.075,0.46276,1.72100,380689.00,2.62682,112319,51,-671.0000,-70.0000,-4040.0000
1752796611.978,1633.173,0.46459,1.72161,381915.00,2.61838,112386,51,-681.0000,-83.0000,-4034.0000
1752796612.116,1633.311,0.46520,1.72161,381058.00,2.62427,112434,51,-667.0000,-86.0000,-4029.0000
1752796612.253,1633.448,0.46520,1.71978,381915.00,2.61838,112519,51,-680.0000,-72.0000,-4048.0000
1752796612.342,1633.537,0.46398,1.71978,384608.00,2.60005,112591,51,-681.0000,-73.0000,-4028.0000
1752796612.478,1633.673,0.46337,1.72039,382101.00,2.61711,112400,51,-676.0000,-81.0000,-4048.0000
1752796612.641,1633.836,0.46520,1.72039,381614.00,2.62044,112401,51,-660.0000,-83.0000,-4050.0000
1752796612.838,1634.033,0.46520,1.71978,383260.00,2.60919,112396,51,-658.0000,-78.0000,-4045.0000
1752796612.967,1634.162,0.46581,1.72100,384120.00,2.61917,112475,51,-662.0000,-83.0000,-4046.0000
1752796613.082,1634.277,0.46520,1.71917,384120.00,2.60335,112535,51,-676.0000,-81.0000,-4049.0000
1752796613.222,1634.417,0.46642,1.71917,383633.00,2.60665,112615,51,-669.0000,-80.0000,-4033.0000
1752796613.312,1634.507,0.46703,1.71734,382101.00,2.61711,112664,51,-677.0000,-91.0000,-4036.0000
1752796613.407,1634.602,0.46642,1.71978,384120.00,2.60335,112759,51,-677.0000,-91.0000,-4036.0000
1752796613.616,1634.811,0.46764,1.71917,383146.00,2.60997,112516,51,-662.0000,-78.0000,-4048.0000
1752796613.743,1634.938,0.46642,1.71795,383146.00,2.60997,112553,51,-679.0000,-83.0000,-4036.0000
1752796613.848,1635.043,0.46764,1.71612,386412.00,2.58791,112541,51,-690.0000,-85.0000,-4051.0000
1752796613.967,1635.162,0.46825,1.71856,385546.00,2.59372,112570,51,-683.0000,-73.0000,-4035.0000
1752796614.215,1635.410,0.46886,1.71673,387279.00,2.58211,112627,51,-661.0000,-94.0000,-4037.0000
1752796614.359,1635.554,0.46947,1.71673,387469.00,2.58917,112689,51,-669.0000,-87.0000,-4042.0000
1752796614.478,1635.673,0.46764,1.71673,387469.00,2.58085,112808,51,-670.0000,-77.0000,-4040.0000
1752796614.591,1635.786,0.46947,1.71551,388638.00,2.58211,112725,51,-671.0000,-65.0000,-4034.0000
1752796614.711,1635.906,0.46886,1.71551,388638.00,2.57308,112680,51,-666.0000,-71.0000,-4048.0000
1752796614.847,1636.042,0.46886,1.71673,388829.00,2.57182,112666,51,-665.0000,-81.0000,-4039.0000
1752796615.060,1636.255,0.47009,1.71490,392625.00,2.54696,112715,51,-667.0000,-84.0000,-4046.0000
1752796615.192,1636.387,0.46886,1.71490,389700.00,2.56607,112771,51,-688.0000,-90.0000,-4034.0000
1752796615.389,1636.584,0.47009,1.71368,389319.00,2.56859,112806,51,-663.0000,-89.0000,-4042.0000
1752796615.539,1636.734,0.46886,1.71368,389401.00,2.56804,112867,51,-679.0000,-77.0000,-4028.0000
1752796615.648,1636.843,0.47131,1.71490,391941.00,2.55140,112933,51,-672.0000,-83.0000,-4047.0000
1752796615.802,1636.997,0.47253,1.71429,390275.00,2.56678,112792,51,-673.0000,-64.0000,-4042.0000
1752796615.913,1637.108,0.47070,1.71368,390275.00,2.56230,112822,51,-678.0000,-87.0000,-4039.0000
1752796616.038,1637.233,0.47070,1.71734,392133.00,2.55015,112821,51,-664.0000,-71.0000,-4042.0000
1752796616.119,1637.314,0.47131,1.71490,391449.00,2.55461,112850,51,-664.0000,-71.0000,-4042.0000
1752796616.275,1637.470,0.47192,1.71245,390083.00,2.56355,112941,51,-670.0000,-82.0000,-4052.0000
1752796616.384,1637.579,0.47070,1.71245,392713.00,2.54639,112968,51,-667.0000,-90.0000,-4048.0000
1752796616.486,1637.681,0.47314,1.71245,391257.00,2.55586,113037,51,-663.0000,-84.0000,-4041.0000
1752796616.611,1637.806,0.47314,1.71306,393399.00,2.54195,112849,51,-670.0000,-98.0000,-4040.0000
1752796616.747,1637.942,0.47375,1.71306,392519.00,2.54445,112837,51,-661.0000,-72.0000,-4033.0000
1752796616.833,1638.028,0.47253,1.71123,392519.00,2.54764,112819,51,-652.0000,-86.0000,-4050.0000
1752796616.991,1638.186,0.47314,1.71245,394967.00,2.53877,112815,51,-669.0000,-76.0000,-4050.0000
1752796617.102,1638.297,0.47375,1.70879,397726.00,2.53185,112842,51,-683.0000,-94.0000,-4032.0000
1752796617.199,1638.394,0.47436,1.71184,397726.00,2.51429,112925,51,-676.0000,-79.0000,-4045.0000
1752796617.340,1638.535,0.47436,1.71245,395851.00,2.52620,112982,51,-675.0000,-78.0000,-4037.0000
1752796617.438,1638.633,0.47375,1.71062,395656.00,2.52744,112985,51,-675.0000,-78.0000,-4037.0000
1752796617.570,1638.765,0.47375,1.71062,395656.00,2.52744,112800,51,-682.0000,-78.0000,-4031.0000
1752796617.686,1638.881,0.47497,1.71062,396047.00,2.52495,112741,51,-661.0000,-86.0000,-4037.0000
1752796617.794,1638.989,0.47375,1.70940,396047.00,2.52495,112700,51,-678.0000,-97.0000,-4043.0000
1752796617.892,1639.087,0.47497,1.71001,396243.00,2.52370,112712,51,-650.0000,-82.0000,-4052.0000
1752796618.007,1639.202,0.47497,1.71001,397428.00,2.51618,112731,51,-663.0000,-95.0000,-4045.0000
1752796618.169,1639.364,0.47558,1.71062,396737.00,2.52056,112800,51,-672.0000,-65.0000,-4037.0000
1752796618.334,1639.529,0.47436,1.71123,397326.00,2.53185,112834,51,-674.0000,-99.0000,-4039.0000
1752796618.482,1639.677,0.47619,1.70879,397326.00,2.51682,112937,51,-670.0000,-83.0000,-4041.0000
1752796618.588,1639.783,0.47558,1.70940,397624.00,2.51493,112859,51,-662.0000,-77.0000,-4032.0000
1752796618.701,1639.896,0.47619,1.70940,397624.00,2.51493,112710,51,-676.0000,-79.0000,-4028.0000
1752796618.796,1639.991,0.47619,1.70818,397821.00,2.51369,112639,51,-674.0000,-83.0000,-4035.0000
1752796618.946,1640.141,0.47680,1.70818,399207.00,2.50496,112622,51,-679.0000,-74.0000,-4051.0000
1752796619.071,1640.266,0.47436,1.71001,399900.00,2.50062,112663,51,-674.0000,-75.0000,-4041.0000
1752796619.226,1640.421,0.47192,1.71368,399207.00,2.50496,112713,51,-664.0000,-77.0000,-4045.0000
1752796619.373,1640.568,0.47802,1.70818,398018.00,2.51244,112786,51,-680.0000,-81.0000,-4029.0000
1752796619.500,1640.695,0.47741,1.70879,400496.00,2.50124,112829,51,-667.0000,-88.0000,-4044.0000
1752796619.698,1640.893,0.47436,1.71062,400496.00,2.49690,112941,51,-671.0000,-73.0000,-4037.0000
1752796619.832,1641.027,0.47009,1.71551,399603.00,2.50248,112753,51,-668.0000,-73.0000,-4035.0000
1752796620.042,1641.237,0.46947,1.71490,389808.00,2.56536,112722,51,-668.0000,-81.0000,-4040.0000
1752796620.172,1641.367,0.47253,1.71306,387958.00,2.57759,112758,51,-661.0000,-76.0000,-4028.0000
1752796620.294,1641.489,0.47680,1.70818,392519.00,2.54764,112801,51,-661.0000,-76.0000,-4028.0000
1752796620.431,1641.626,0.47863,1.70574,399405.00,2.50372,112911,51,-677.0000,-68.0000,-4042.0000
1752796620.535,1641.730,0.47863,1.70513,400993.00,2.49381,112978,51,-680.0000,-74.0000,-4043.0000
1752796620.676,1641.871,0.48168,1.70574,402786.00,2.48271,113082,51,-667.0000,-78.0000,-4033.0000
1752796620.793,1641.988,0.47924,1.70513,404183.00,2.47413,112865,51,-668.0000,-79.0000,-4031.0000
1752796620.932,1642.127,0.47985,1.70391,401192.00,2.49257,112844,51,-668.0000,-95.0000,-4042.0000
1752796621.038,1642.233,0.47924,1.70452,403685.00,2.47718,112828,51,-679.0000,-77.0000,-4044.0000
1752796621.176,1642.371,0.47985,1.70452,403388.00,2.47900,112825,51,-673.0000,-71.0000,-4031.0000
1752796621.358,1642.553,0.48230,1.70269,405489.00,2.46616,112872,51,-674.0000,-79.0000,-4044.0000
1752796621.488,1642.683,0.48046,1.70330,404788.00,2.47043,112933,51,-662.0000,-93.0000,-4047.0000
1752796621.602,1642.797,0.48168,1.70269,406190.00,2.46190,113059,51,-679.0000,-72.0000,-4042.0000
1752796621.760,1642.955,0.48107,1.70391,408208.00,2.44973,113055,51,-670.0000,-75.0000,-4038.0000
1752796621.880,1643.075,0.48107,1.70452,407096.00,2.45642,112951,51,-669.0000,-92.0000,-4043.0000
1752796621.977,1643.172,0.48230,1.70269,404990.00,2.46920,112940,51,-675.0000,-76.0000,-4035.0000
1752796622.243,1643.438,0.48107,1.70391,408208.00,2.45396,113003,51,-673.0000,-77.0000,-4033.0000
1752796622.371,1643.566,0.48230,1.70208,408208.00,2.44973,112972,51,-675.0000,-74.0000,-4045.0000
1752796622.513,1643.708,0.48474,1.70208,408208.00,2.44973,113082,51,-675.0000,-94.0000,-4040.0000
1752796622.713,1643.908,0.48291,1.70208,408913.00,2.44551,113185,51,-663.0000,-81.0000,-4036.0000
1752796622.858,1644.053,0.48291,1.70269,408412.00,2.44007,113263,51,-677.0000,-83.0000,-4045.0000
1752796622.979,1644.174,0.48291,1.70147,408412.00,2.44850,113322,51,-687.0000,-79.0000,-4054.0000
1752796623.119,1644.314,0.48352,1.70208,409118.00,2.44428,113166,51,-679.0000,-85.0000,-4041.0000
1752796623.209,1644.404,0.48474,1.70147,410235.00,2.43762,113188,51,-668.0000,-90.0000,-4037.0000
1752796623.289,1644.484,0.47619,1.70818,409734.00,2.44061,113194,51,-669.0000,-73.0000,-4047.0000
1752796623.466,1644.661,0.47741,1.70879,399207.00,2.45519,113188,51,-668.0000,-89.0000,-4043.0000
1752796623.549,1644.744,0.48230,1.70208,407300.00,2.45519,113287,51,-668.0000,-89.0000,-4043.0000
1752796623.723,1644.918,0.47924,1.70269,408208.00,2.44973,113294,51,-676.0000,-87.0000,-4051.0000
1752796623.877,1645.072,0.48291,1.70269,400297.00,2.49814,113391,51,-680.0000,-66.0000,-4042.0000
1752796624.013,1645.208,0.47863,1.70574,402986.00,2.48147,113434,51,-669.0000,-93.0000,-4043.0000
1752796624.133,1645.328,0.47741,1.70757,400297.00,2.48886,113334,51,-664.0000,-82.0000,-4043.0000
1752796624.234,1645.429,0.47924,1.70818,400297.00,2.49814,113315,51,-683.0000,-89.0000,-4032.0000
1752796624.375,1645.570,0.48107,1.70330,403388.00,2.49814,113370,51,-682.0000,-80.0000,-4048.0000
1752796624.491,1645.686,0.47924,1.70696,403388.00,2.47900,113374,51,-672.0000,-73.0000,-4045.0000
1752796624.622,1645.817,0.47741,1.70635,399603.00,2.50248,113406,51,-665.0000,-76.0000,-4049.0000
1752796624.722,1645.917,0.47802,1.70635,401094.00,2.49318,113444,51,-670.0000,-72.0000,-4033.0000
1752796624.819,1646.014,0.47863,1.70513,400695.00,2.49566,113527,51,-668.0000,-78.0000,-4053.0000
1752796624.983,1646.178,0.47924,1.70574,402986.00,2.47841,113581,51,-675.0000,-95.0000,-4054.0000
1752796625.092,1646.287,0.47924,1.70757,399009.00,2.48147,113423,51,-673.0000,-71.0000,-4030.0000
1752796625.243,1646.438,0.47680,1.70879,399009.00,2.50621,113435,51,-669.0000,-80.0000,-4042.0000
1752796625.416,1646.611,0.48779,1.70269,402882.00,2.48211,113433,51,-662.0000,-85.0000,-4038.0000
1752796625.525,1646.720,0.50122,1.68559,434329.00,2.32927,113429,51,-667.0000,-76.0000,-4041.0000
1752796625.630,1646.825,0.50061,1.68498,434329.00,2.30240,113493,51,-672.0000,-77.0000,-4044.0000
1752796625.754,1646.949,0.50122,1.68376,435585.00,2.29576,113567,51,-668.0000,-95.0000,-4044.0000
1752796625.880,1647.075,0.49817,1.68987,425025.00,2.35280,113619,51,-662.0000,-75.0000,-4035.0000
1752796625.971,1647.166,0.50061,1.68376,428073.00,2.33605,113653,51,-680.0000,-55.0000,-4039.0000
1752796626.169,1647.364,0.50305,1.68071,439461.00,2.27551,113528,51,-663.0000,-79.0000,-4037.0000
1752796626.285,1647.480,0.50061,1.68437,439689.00,2.27433,113517,51,-663.0000,-79.0000,-4037.0000
1752796626.416,1647.611,0.48230,1.70085,435585.00,2.29576,113500,51,-687.0000,-81.0000,-4037.0000
1752796626.584,1647.779,0.48535,1.69902,407411.00,2.45452,113565,51,-670.0000,-66.0000,-4031.0000
1752796626.723,1647.918,0.48657,1.69780,415959.00,2.40408,113576,51,-668.0000,-87.0000,-4030.0000
1752796626.913,1648.108,0.48291,1.69963,411652.00,2.42923,113555,51,-671.0000,-61.0000,-4029.0000
1752796627.044,1648.239,0.48291,1.70330,412984.00,2.44129,113629,51,-642.0000,-76.0000,-4041.0000
1752796627.189,1648.384,0.48962,1.69475,412984.00,2.42140,113685,51,-678.0000,-75.0000,-4041.0000
1752796627.362,1648.557,0.48901,1.69475,417602.00,2.37464,113509,51,-671.0000,-75.0000,-4040.0000
1752796627.442,1648.637,0.49023,1.69536,417602.00,2.39462,113594,51,-663.0000,-65.0000,-4038.0000
1752796627.564,1648.759,0.48962,1.69658,418743.00,2.38810,113547,51,-653.0000,-67.0000,-4040.0000
1752796627.665,1648.860,0.48901,1.69597,419250.00,2.38521,113584,51,-653.0000,-67.0000,-4040.0000
1752796627.816,1649.011,0.48901,1.69475,417602.00,2.39462,113647,51,-658.0000,-85.0000,-4041.0000
1752796627.932,1649.127,0.48840,1.69658,419037.00,2.38642,113692,51,-672.0000,-85.0000,-4033.0000
1752796628.011,1649.206,0.48901,1.69536,416675.00,2.39995,113671,51,-672.0000,-85.0000,-4033.0000
1752796628.129,1649.324,0.48962,1.69536,418319.00,2.39052,113586,51,-680.0000,-65.0000,-4040.0000
1752796628.238,1649.433,0.49206,1.69231,420609.00,2.37750,113610,51,-673.0000,-71.0000,-4039.0000
1752796628.353,1649.548,0.49084,1.69292,422990.00,2.36412,113544,51,-665.0000,-88.0000,-4034.0000
1752796628.467,1649.662,0.48962,1.69475,419462.00,2.38400,113562,51,-673.0000,-85.0000,-4049.0000
1752796628.575,1649.770,0.49206,1.68987,422052.00,2.36937,113705,51,-677.0000,-79.0000,-4038.0000
1752796628.692,1649.887,0.49206,1.69292,425891.00,2.34801,113514,51,-671.0000,-84.0000,-4041.0000
1752796628.781,1649.976,0.49206,1.69292,421544.00,2.37223,113490,51,-658.0000,-73.0000,-4039.0000
1752796628.939,1650.134,0.49328,1.69231,422990.00,2.36412,113518,51,-668.0000,-90.0000,-4048.0000
1752796629.042,1650.237,0.49267,1.69292,421624.00,2.37178,113470,51,-668.0000,-85.0000,-4030.0000
1752796629.135,1650.330,0.49267,1.69231,419675.00,2.38279,113512,51,-680.0000,-78.0000,-4036.0000
1752796629.252,1650.447,0.49145,1.69231,423206.00,2.36291,113585,51,-683.0000,-81.0000,-4034.0000
1752796629.376,1650.571,0.49389,1.69109,422990.00,2.37223,113404,51,-665.0000,-84.0000,-4047.0000
1752796629.497,1650.692,0.49328,1.69170,422990.00,2.36412,113384,51,-671.0000,-93.0000,-4041.0000
1752796629.599,1650.794,0.49267,1.69292,424224.00,2.35724,113395,51,-669.0000,-82.0000,-4035.0000
1752796629.710,1650.905,0.49389,1.69231,424440.00,2.35605,113439,51,-669.0000,-72.0000,-4044.0000
1752796629.791,1650.986,0.49084,1.69292,426836.00,2.34282,113456,51,-674.0000,-80.0000,-4036.0000
1752796629.901,1651.096,0.49145,1.69170,421838.00,2.37058,113444,51,-673.0000,-80.0000,-4030.0000
1752796630.013,1651.208,0.49084,1.69292,420182.00,2.37992,113207,51,-685.0000,-85.0000,-4040.0000
1752796630.157,1651.352,0.49023,1.69414,421624.00,2.37178,113356,51,-678.0000,-83.0000,-4044.0000
1752796630.256,1651.451,0.48962,1.69414,419888.00,2.38159,113216,51,-683.0000,-79.0000,-4031.0000
1752796630.366,1651.561,0.49023,1.69597,419969.00,2.38112,113260,51,-683.0000,-79.0000,-4031.0000
1752796630.497,1651.692,0.48718,1.69658,418025.00,2.39220,113309,51,-669.0000,-72.0000,-4043.0000
1752796630.623,1651.818,0.48535,1.69963,414617.00,2.41186,113343,51,-665.0000,-93.0000,-4031.0000
1752796630.765,1651.960,0.48413,1.69963,411150.00,2.43220,113451,51,-661.0000,-77.0000,-4041.0000
1752796630.878,1652.073,0.48291,1.70269,409027.00,2.44483,113236,51,-677.0000,-82.0000,-4032.0000
1752796631.019,1652.214,0.48107,1.70208,408617.00,2.44728,113137,51,-672.0000,-82.0000,-4039.0000
1752796631.180,1652.375,0.47924,1.70574,410325.00,2.43709,113204,51,-666.0000,-82.0000,-4049.0000
1752796631.308,1652.503,0.47741,1.70757,400000.00,2.50000,113250,51,-674.0000,-64.0000,-4040.0000
1752796631.403,1652.598,0.47741,1.70879,400297.00,2.49814,113258,51,-668.0000,-80.0000,-4041.0000
1752796631.541,1652.736,0.47619,1.71001,396047.00,2.50684,113348,51,-682.0000,-74.0000,-4040.0000
1752796631.719,1652.914,0.47436,1.71123,396047.00,2.52495,113489,51,-676.0000,-87.0000,-4049.0000
1752796631.873,1653.068,0.46886,1.71551,393205.00,2.54320,113591,51,-656.0000,-81.0000,-4029.0000
1752796632.007,1653.202,0.46886,1.71612,388638.00,2.57308,113261,51,-666.0000,-74.0000,-4029.0000
1752796632.114,1653.309,0.46825,1.71673,387958.00,2.57759,113345,51,-671.0000,-68.0000,-4047.0000
1752796632.248,1653.443,0.46581,1.71917,384495.00,2.60081,113416,51,-675.0000,-76.0000,-4039.0000
1752796632.404,1653.599,0.46703,1.71917,383633.00,2.60665,113557,51,-677.0000,-81.0000,-4047.0000
1752796632.519,1653.714,0.46581,1.71978,384007.00,2.60411,113618,51,-675.0000,-84.0000,-4029.0000
1752796632.637,1653.832,0.46520,1.72100,381058.00,2.62427,113797,51,-675.0000,-69.0000,-4045.0000
1752796632.758,1653.953,0.46276,1.72161,380019.00,2.63144,113874,51,-674.0000,-82.0000,-4040.0000
1752796632.901,1654.096,0.46215,1.72344,375470.00,2.64796,113742,51,-668.0000,-90.0000,-4042.0000
1752796633.009,1654.204,0.45971,1.72405,375470.00,2.66332,113690,51,-673.0000,-86.0000,-4037.0000
1752796633.162,1654.357,0.45726,1.72650,374626.00,2.66933,113693,51,-675.0000,-80.0000,-4034.0000
1752796633.312,1654.507,0.45726,1.72711,372403.00,2.67793,113674,51,-682.0000,-83.0000,-4043.0000
1752796633.406,1654.601,0.45849,1.72772,372403.00,2.68526,113825,51,-674.0000,-95.0000,-4040.0000
1752796633.511,1654.706,0.45849,1.72833,372102.00,2.68743,113891,51,-674.0000,-95.0000,-4040.0000
1752796633.665,1654.860,0.46154,1.72650,371442.00,2.69221,114023,51,-639.0000,-82.0000,-4054.0000
1752796633.748,1654.943,0.46032,1.72650,376800.00,2.65392,113693,51,-649.0000,-78.0000,-4046.0000
1752796633.856,1655.051,0.45910,1.72894,373963.00,2.67406,113900,51,-674.0000,-74.0000,-4047.0000
1752796633.963,1655.158,0.45482,1.72894,371744.00,2.69002,113967,51,-678.0000,-80.0000,-4045.0000
1752796634.109,1655.304,0.45055,1.73260,367927.00,2.71793,113961,51,-680.0000,-83.0000,-4037.0000
1752796634.230,1655.425,0.44994,1.73626,362666.00,2.75735,114002,51,-685.0000,-82.0000,-4031.0000
1752796634.366,1655.561,0.44872,1.73626,352394.00,2.77383,114006,51,-669.0000,-85.0000,-4041.0000
1752796634.540,1655.735,0.43834,1.74786,352394.00,2.83773,114003,51,-670.0000,-79.0000,-4053.0000
1752796634.641,1655.836,0.43895,1.74603,344320.00,2.90427,113962,51,-672.0000,-88.0000,-4034.0000
1752796634.768,1655.963,0.44017,1.74542,348269.00,2.87924,114095,51,-674.0000,-84.0000,-4047.0000
1752796634.870,1656.065,0.43468,1.74908,348269.00,2.87134,114148,51,-663.0000,-83.0000,-4035.0000
1752796634.993,1656.188,0.42796,1.75580,343215.00,2.91362,114168,51,-675.0000,-77.0000,-4049.0000
1752796635.114,1656.309,0.43162,1.75397,333302.00,3.00027,114213,51,-668.0000,-83.0000,-4033.0000
1752796635.335,1656.530,0.43223,1.75580,335299.00,2.95932,114111,51,-675.0000,-83.0000,-4037.0000
1752796635.434,1656.629,0.42918,1.75702,335299.00,2.98241,114102,51,-660.0000,-85.0000,-4039.0000
1752796635.560,1656.755,0.42613,1.75885,333609.00,2.99752,114149,51,-679.0000,-89.0000,-4043.0000
1752796635.770,1656.965,0.42247,1.76313,325865.00,3.02103,114222,51,-677.0000,-80.0000,-4043.0000
1752796635.848,1657.043,0.41636,1.77106,325865.00,3.06875,114383,51,-662.0000,-101.0000,-4053.0000
1752796635.991,1657.186,0.41270,1.77411,312825.00,3.15827,114383,51,-691.0000,-89.0000,-4018.0000
1752796636.101,1657.296,0.40904,1.77534,312825.00,3.19667,114196,51,-660.0000,-82.0000,-4049.0000
1752796636.230,1657.425,0.40842,1.77656,309781.00,3.22808,114176,51,-661.0000,-90.0000,-4048.0000
1752796636.346,1657.541,0.40354,1.78266,309504.00,3.23097,114164,51,-669.0000,-76.0000,-4041.0000
1752796636.459,1657.654,0.40415,1.78327,302611.00,3.30456,114113,51,-683.0000,-92.0000,-4046.0000
1752796636.603,1657.798,0.40476,1.78205,303457.00,3.29536,114221,51,-661.0000,-98.0000,-4042.0000
1752796636.684,1657.879,0.39194,1.79426,301459.00,3.31719,114274,51,-661.0000,-98.0000,-4042.0000
1752796636.818,1658.013,0.40781,1.77900,289333.00,3.45621,114304,51,-657.0000,-74.0000,-4049.0000
1752796636.943,1658.138,0.42857,1.75641,312825.00,3.19667,114433,51,-670.0000,-87.0000,-4037.0000
1752796637.090,1658.285,0.42186,1.76313,306761.00,2.96063,114292,51,-682.0000,-87.0000,-4044.0000
1752796637.201,1658.396,0.40110,1.78510,306761.00,3.25986,114326,51,-687.0000,-77.0000,-4030.0000
1752796637.347,1658.542,0.39988,1.78510,297275.00,3.34217,114344,51,-662.0000,-98.0000,-4039.0000
1752796637.428,1658.623,0.39744,1.78571,297275.00,3.36388,114386,51,-667.0000,-80.0000,-4046.0000
1752796637.572,1658.767,0.39805,1.78816,298416.00,3.35102,114383,51,-681.0000,-85.0000,-4052.0000
1752796637.720,1658.915,0.39805,1.78999,295129.00,3.38834,114493,51,-677.0000,-81.0000,-4046.0000
1752796637.838,1659.033,0.39377,1.79121,294561.00,3.39488,114548,51,-681.0000,-78.0000,-4050.0000
1752796637.942,1659.137,0.39499,1.79121,292529.00,3.41846,114401,51,-673.0000,-87.0000,-4049.0000
1752796638.058,1659.253,0.39255,1.79365,292785.00,3.41547,114399,51,-677.0000,-88.0000,-4047.0000
1752796638.215,1659.410,0.39133,1.79426,290021.00,3.44802,114437,51,-673.0000,-84.0000,-4031.0000
1752796638.322,1659.517,0.39255,1.79365,289208.00,3.45772,114455,51,-684.0000,-63.0000,-4034.0000
1752796638.482,1659.677,0.38950,1.79731,287836.00,3.47419,114528,51,-664.0000,-94.0000,-4046.0000
1752796638.719,1659.914,0.38828,1.79609,284369.00,3.46444,114571,51,-672.0000,-82.0000,-4026.0000
1752796638.805,1660.000,0.37179,1.81502,284369.00,3.51655,114632,51,-681.0000,-80.0000,-4034.0000
1752796638.922,1660.117,0.37363,1.81319,266751.00,3.74881,114496,51,-675.0000,-83.0000,-4053.0000
1752796639.052,1660.247,0.37485,1.81380,269126.00,3.71573,114549,51,-670.0000,-80.0000,-4034.0000
1752796639.129,1660.324,0.37607,1.81319,268050.00,3.73064,114549,51,-669.0000,-99.0000,-4035.0000
1752796639.246,1660.441,0.37851,1.80891,269158.00,3.71528,114572,51,-669.0000,-99.0000,-4035.0000
1752796639.376,1660.571,0.37973,1.80708,273410.00,3.65751,114630,51,-668.0000,-86.0000,-4045.0000
1752796639.516,1660.711,0.37668,1.80952,273060.00,3.63269,114651,51,-674.0000,-84.0000,-4021.0000
1752796639.619,1660.814,0.37851,1.80952,273060.00,3.66219,114568,51,-677.0000,-87.0000,-4044.0000
1752796639.732,1660.927,0.37851,1.80708,274850.00,3.63834,114564,51,-672.0000,-80.0000,-4034.0000
1752796639.841,1661.036,0.37973,1.80708,275042.00,3.63580,114625,51,-668.0000,-95.0000,-4045.0000
1752796639.979,1661.174,0.37851,1.80769,273837.00,3.65181,114630,51,-673.0000,-76.0000,-4035.0000
1752796640.095,1661.290,0.37851,1.80769,275042.00,3.63580,114704,51,-674.0000,-67.0000,-4036.0000
1752796640.277,1661.472,0.37790,1.80708,277226.00,3.60716,114701,51,-662.0000,-71.0000,-4044.0000
1752796640.439,1661.634,0.37973,1.80830,273720.00,3.64301,114592,51,-681.0000,-77.0000,-4020.0000
1752796640.568,1661.763,0.37912,1.80464,273720.00,3.65337,114669,51,-670.0000,-81.0000,-4043.0000
1752796640.680,1661.875,0.37912,1.80769,277344.00,3.60562,114647,51,-671.0000,-80.0000,-4033.0000
1752796640.785,1661.980,0.37790,1.80769,274615.00,3.64146,114691,51,-679.0000,-89.0000,-4043.0000
1752796640.870,1662.065,0.37729,1.80769,275160.00,3.63424,114751,51,-664.0000,-85.0000,-4048.0000
1752796640.979,1662.174,0.37851,1.80891,274263.00,3.64612,114780,51,-675.0000,-91.0000,-4039.0000
1752796641.115,1662.310,0.37668,1.80891,273410.00,3.65751,114613,51,-659.0000,-67.0000,-4045.0000
1752796641.274,1662.469,0.37485,1.81013,273293.00,3.65907,114684,51,-678.0000,-78.0000,-4037.0000
1752796641.408,1662.603,0.37790,1.80891,272208.00,3.67366,114712,51,-678.0000,-91.0000,-4047.0000
1752796641.506,1662.701,0.37668,1.80952,272208.00,3.67366,114728,51,-671.0000,-64.0000,-4032.0000
1752796641.628,1662.823,0.37729,1.81074,272092.00,3.67523,114779,51,-670.0000,-83.0000,-4038.0000
1752796641.748,1662.943,0.37851,1.80708,274263.00,3.64612,114808,51,-661.0000,-77.0000,-4032.0000
1752796641.853,1663.048,0.37546,1.81380,273953.00,3.65025,114817,51,-680.0000,-83.0000,-4033.0000
1752796641.968,1663.163,0.37729,1.80891,271744.00,3.72431,114677,51,-684.0000,-95.0000,-4049.0000
1752796642.161,1663.356,0.37607,1.81013,271744.00,3.67992,114721,51,-669.0000,-76.0000,-4031.0000
1752796642.352,1663.547,0.37729,1.80952,271203.00,3.68726,114703,51,-669.0000,-76.0000,-4031.0000
1752796642.459,1663.654,0.37790,1.80952,272634.00,3.66792,114752,51,-672.0000,-66.0000,-4036.0000
1752796642.579,1663.774,0.37851,1.80708,272750.00,3.66635,114799,51,-679.0000,-76.0000,-4033.0000
1752796642.686,1663.881,0.37790,1.80830,274380.00,3.64457,114622,51,-661.0000,-85.0000,-4036.0000
1752796642.812,1664.007,0.37912,1.80830,274498.00,3.64301,114709,51,-669.0000,-86.0000,-4035.0000
1752796642.917,1664.112,0.37973,1.80891,274498.00,3.64301,114730,51,-666.0000,-84.0000,-4031.0000
1752796643.071,1664.266,0.37973,1.80708,274380.00,3.64457,114745,51,-675.0000,-87.0000,-4035.0000
1752796643.191,1664.386,0.38034,1.80708,274615.00,3.64146,114793,51,-665.0000,-72.0000,-4039.0000
1752796643.307,1664.502,0.37912,1.80830,275278.00,3.63269,114833,51,-684.0000,-86.0000,-4049.0000
1752796643.481,1664.676,0.37912,1.80769,275587.00,3.62861,114736,51,-679.0000,-87.0000,-4039.0000
1752796643.575,1664.770,0.38034,1.80769,274071.00,3.64869,114724,51,-669.0000,-67.0000,-4034.0000
1752796643.714,1664.909,0.37912,1.80708,274850.00,3.63834,114717,51,-679.0000,-78.0000,-4029.0000
1752796643.819,1665.014,0.37912,1.80647,275823.00,3.62550,114757,51,-682.0000,-76.0000,-4050.0000
1752796643.985,1665.180,0.37912,1.80708,274188.00,3.64713,114795,51,-669.0000,-84.0000,-4047.0000
1752796644.108,1665.303,0.37607,1.81013,272402.00,3.67104,114853,51,-672.0000,-89.0000,-4039.0000
1752796644.256,1665.451,0.37607,1.80952,271319.00,3.68570,114689,51,-682.0000,-74.0000,-4039.0000
1752796644.385,1665.580,0.37485,1.81136,270123.00,3.70201,114714,51,-679.0000,-97.0000,-4045.0000
1752796644.471,1665.666,0.37485,1.81074,270548.00,3.69620,114754,51,-674.0000,-81.0000,-4036.0000
1752796644.605,1665.800,0.37424,1.81074,271088.00,3.68883,114774,51,-670.0000,-81.0000,-4035.0000
1752796644.800,1665.995,0.37485,1.81197,271744.00,3.67992,114796,51,-656.0000,-83.0000,-4046.0000
1752796644.935,1666.130,0.37424,1.81136,270433.00,3.69620,114834,51,-675.0000,-79.0000,-4045.0000
1752796645.031,1666.226,0.37790,1.80952,270433.00,3.69777,114714,51,-672.0000,-73.0000,-4033.0000
1752796645.166,1666.361,0.37790,1.80952,272518.00,3.66948,114765,51,-670.0000,-73.0000,-4030.0000
1752796645.302,1666.497,0.37729,1.80952,272750.00,3.66635,114746,51,-672.0000,-77.0000,-4042.0000
1752796645.474,1666.669,0.37790,1.80525,272518.00,3.65751,114807,51,-662.0000,-82.0000,-4043.0000
1752796645.578,1666.773,0.37790,1.80830,272518.00,3.66948,114871,51,-689.0000,-69.0000,-4030.0000
1752796645.697,1666.892,0.37912,1.80952,273837.00,3.65181,114717,51,-662.0000,-84.0000,-4033.0000
1752796645.916,1667.111,0.37912,1.80769,273837.00,3.65181,114817,51,-670.0000,-74.0000,-4043.0000
1752796646.073,1667.268,0.37851,1.80891,274615.00,3.64146,114816,51,-670.0000,-71.0000,-4035.0000
1752796646.180,1667.375,0.37790,1.80830,273410.00,3.65751,114862,51,-689.0000,-79.0000,-4037.0000
1752796646.296,1667.491,0.37790,1.80769,273837.00,3.65181,114748,51,-670.0000,-80.0000,-4050.0000
1752796646.451,1667.646,0.37851,1.80830,274380.00,3.64457,114777,51,-673.0000,-91.0000,-4027.0000
1752796646.577,1667.772,0.37790,1.80769,275705.00,3.65025,114769,51,-664.0000,-95.0000,-4032.0000
1752796646.685,1667.880,0.37790,1.80586,275705.00,3.62706,114857,51,-666.0000,-80.0000,-4030.0000
1752796646.831,1668.026,0.37973,1.80647,276251.00,3.64146,114903,51,-675.0000,-74.0000,-4033.0000
1752796646.966,1668.161,0.38095,1.80586,276251.00,3.61989,114758,51,-673.0000,-75.0000,-4049.0000
1752796647.098,1668.293,0.38095,1.80525,275160.00,3.63424,114758,51,-664.0000,-88.0000,-4047.0000
1752796647.221,1668.416,0.37973,1.80708,277153.00,3.60810,114755,51,-669.0000,-75.0000,-4044.0000
1752796647.332,1668.527,0.38095,1.80647,276059.00,3.63269,114791,51,-670.0000,-78.0000,-4035.0000
1752796647.418,1668.613,0.37912,1.80647,276059.00,3.62240,114799,51,-672.0000,-87.0000,-4041.0000
1752796647.556,1668.751,0.37363,1.81197,267513.00,3.73813,114778,51,-669.0000,-89.0000,-4044.0000
1752796647.667,1668.862,0.37241,1.81013,269893.00,3.70516,114693,51,-669.0000,-85.0000,-4038.0000
1752796647.784,1668.979,0.37363,1.81319,264388.00,3.78232,114719,51,-679.0000,-78.0000,-4033.0000
1752796647.952,1669.147,0.37057,1.81563,268702.00,3.72159,114712,51,-674.0000,-77.0000,-4026.0000
1752796648.075,1669.270,0.37179,1.81441,266215.00,3.75635,114791,51,-665.0000,-71.0000,-4040.0000
1752796648.210,1669.405,0.37118,1.81380,266103.00,3.73222,114802,51,-665.0000,-69.0000,-4029.0000
1752796648.323,1669.518,0.37118,1.81563,266103.00,3.75794,114698,51,-684.0000,-70.0000,-4024.0000
1752796648.506,1669.701,0.37118,1.81502,266638.00,3.75040,114759,51,-673.0000,-75.0000,-4031.0000
1752796648.592,1669.787,0.36996,1.81563,266103.00,3.75794,114760,51,-673.0000,-75.0000,-4031.0000
1752796648.738,1669.933,0.36996,1.81685,265878.00,3.76112,114794,51,-671.0000,-77.0000,-4054.0000
1752796649.016,1670.211,0.36996,1.81563,267287.00,3.74129,114652,51,-669.0000,-87.0000,-4045.0000
