timestamp,elapsed_seconds,io2,io3, resistance,eda,ir,bpm,accel_x,accel_y,accel_z
1752795322.760,343.955,0.31013,1.87729,206861.00,4.83415,122261,54,-887.0000,46.0000,-4003.0000
1752795322.954,344.149,0.31136,1.87729,206471.00,4.85433,122239,54,-885.0000,49.0000,-4000.0000
1752795323.054,344.249,0.31136,1.87485,206471.00,4.84328,122296,54,-866.0000,41.0000,-4000.0000
1752795323.221,344.416,0.31136,1.87668,207494.00,4.81941,122310,54,-878.0000,53.0000,-3997.0000
1752795323.335,344.530,0.31258,1.87607,207965.00,4.80849,122367,54,-874.0000,56.0000,-4006.0000
1752795323.471,344.666,0.31197,1.87485,207184.00,4.82661,122383,54,-875.0000,49.0000,-3999.0000
1752795323.638,344.833,0.31136,1.87546,208046.00,4.80661,122403,54,-884.0000,47.0000,-3995.0000
1752795323.818,345.013,0.31136,1.87546,207494.00,4.81941,122474,54,-876.0000,55.0000,-4010.0000
1752795323.988,345.183,0.31074,1.87607,206552.00,4.81941,122513,54,-879.0000,50.0000,-4006.0000
1752795324.114,345.309,0.31074,1.87668,206552.00,4.84139,122415,54,-862.0000,46.0000,-3997.0000
1752795324.285,345.480,0.31013,1.87729,206471.00,4.84328,122451,54,-884.0000,46.0000,-4010.0000
1752795324.512,345.707,0.31074,1.87729,206081.00,4.85244,122476,54,-874.0000,39.0000,-4007.0000
1752795324.670,345.865,0.31074,1.87668,206310.00,4.84705,122507,54,-881.0000,55.0000,-4009.0000
1752795324.845,346.040,0.31074,1.87851,206001.00,4.85433,122537,54,-865.0000,49.0000,-4007.0000
1752795325.012,346.207,0.31197,1.87607,206081.00,4.85244,122592,54,-896.0000,36.0000,-3995.0000
1752795325.146,346.341,0.31197,1.87546,206942.00,4.83226,122661,54,-896.0000,36.0000,-3995.0000
1752795325.340,346.535,0.31136,1.87607,207023.00,4.83038,122478,54,-872.0000,53.0000,-3999.0000
1752795325.505,346.700,0.31319,1.87485,207575.00,4.81753,122517,54,-879.0000,54.0000,-4005.0000
1752795325.671,346.866,0.31197,1.87607,208682.00,4.81565,122522,54,-870.0000,50.0000,-4013.0000
1752795325.815,347.010,0.31258,1.87546,208682.00,4.79198,122543,54,-875.0000,44.0000,-4011.0000
1752795325.989,347.184,0.31136,1.87607,189561.00,4.82661,122603,54,-881.0000,35.0000,-3988.0000
1752795326.121,347.316,0.32540,1.86508,189561.00,5.27532,122641,54,-879.0000,49.0000,-4000.0000
1752795326.263,347.458,0.32540,1.86142,219372.00,4.55845,122676,54,-879.0000,35.0000,-4018.0000
1752795326.419,347.614,0.32601,1.86203,219944.00,4.54660,122745,54,-889.0000,52.0000,-3990.0000
1752795326.588,347.783,0.31990,1.86935,213538.00,4.68301,122770,54,-867.0000,73.0000,-4012.0000
1752795326.674,347.869,0.32295,1.86447,211857.00,4.72016,122619,54,-867.0000,73.0000,-4012.0000
1752795326.848,348.043,0.32662,1.86081,217663.00,4.59425,122669,54,-875.0000,53.0000,-3987.0000
1752795327.000,348.195,0.32723,1.85836,221178.00,4.52124,122667,54,-882.0000,68.0000,-4013.0000
1752795327.126,348.321,0.32845,1.85836,223126.00,4.48177,122733,54,-869.0000,53.0000,-3993.0000
1752795327.229,348.424,0.32540,1.86203,223215.00,4.47999,122736,54,-886.0000,61.0000,-3999.0000
1752795327.355,348.550,0.32723,1.86081,221488.00,4.51491,122753,54,-874.0000,51.0000,-3986.0000
1752795327.465,348.660,0.32662,1.86081,222816.00,4.48800,122830,54,-875.0000,56.0000,-4006.0000
1752795327.571,348.766,0.32601,1.86142,221974.00,4.50502,122859,54,-870.0000,52.0000,-3989.0000
1752795327.730,348.925,0.32601,1.86142,220516.00,4.53480,122709,54,-894.0000,45.0000,-3994.0000
1752795327.891,349.086,0.31929,1.86752,220341.00,4.53840,122721,54,-885.0000,53.0000,-4002.0000
1752795328.058,349.253,0.31746,1.86752,213312.00,4.68796,122724,54,-887.0000,46.0000,-3998.0000
1752795328.206,349.401,0.31868,1.86691,215142.00,4.65846,122753,54,-892.0000,44.0000,-3997.0000
1752795328.352,349.547,0.31807,1.86813,215142.00,4.64809,122762,54,-870.0000,45.0000,-3999.0000
1752795328.501,349.696,0.31929,1.86691,214747.00,4.65663,122833,54,-879.0000,64.0000,-4005.0000
1752795328.619,349.814,0.31990,1.86813,215481.00,4.64076,122854,54,-881.0000,56.0000,-4018.0000
1752795328.805,350.000,0.31990,1.86630,215396.00,4.64259,122883,54,-892.0000,51.0000,-4002.0000
1752795328.938,350.133,0.32051,1.86752,215396.00,4.64259,122719,54,-887.0000,62.0000,-3993.0000
1752795329.003,350.198,0.32051,1.86508,215396.00,4.64259,122671,54,-874.0000,41.0000,-3988.0000
1752795329.168,350.363,0.32295,1.86508,216837.00,4.61174,122650,54,-890.0000,53.0000,-3993.0000
1752795329.286,350.481,0.32295,1.86447,217009.00,4.60809,122613,54,-878.0000,49.0000,-4001.0000
1752795329.439,350.634,0.32234,1.86386,218232.00,4.61468,122639,54,-869.0000,51.0000,-4008.0000
1752795329.587,350.782,0.32357,1.86325,218232.00,4.58227,122634,54,-888.0000,42.0000,-4009.0000
1752795329.767,350.962,0.32295,1.86386,218232.00,4.58227,122701,54,-880.0000,46.0000,-3989.0000
1752795329.927,351.122,0.32540,1.86203,220341.00,4.59243,122701,54,-889.0000,45.0000,-3992.0000
1752795330.040,351.235,0.32479,1.86386,220341.00,4.53840,122615,54,-878.0000,52.0000,-3998.0000
1752795330.143,351.338,0.32479,1.86203,218318.00,4.58046,122464,54,-868.0000,62.0000,-4003.0000
1752795330.310,351.505,0.32540,1.86142,219547.00,4.55483,122409,54,-874.0000,64.0000,-3999.0000
1752795330.438,351.633,0.32601,1.86142,220604.00,4.53300,122410,54,-880.0000,43.0000,-4004.0000
1752795330.594,351.789,0.32601,1.86020,221664.00,4.51132,122414,54,-878.0000,46.0000,-3998.0000
1752795330.715,351.910,0.32662,1.86020,222549.00,4.49338,122424,54,-877.0000,54.0000,-3993.0000
1752795330.883,352.078,0.32845,1.86020,222151.00,4.50143,122456,54,-862.0000,46.0000,-3996.0000
1752795331.030,352.225,0.32784,1.86020,222240.00,4.49964,122495,54,-885.0000,61.0000,-4004.0000
1752795331.181,352.376,0.32845,1.86020,222151.00,4.50143,122335,54,-870.0000,63.0000,-4000.0000
1752795331.313,352.508,0.32906,1.85836,223304.00,4.47820,122285,54,-872.0000,44.0000,-3999.0000
1752795331.437,352.632,0.33272,1.85531,224150.00,4.46129,122315,54,-877.0000,35.0000,-4002.0000
1752795331.557,352.752,0.33516,1.85531,230980.00,4.35506,122315,54,-875.0000,41.0000,-3995.0000
1752795331.631,352.826,0.33822,1.84860,230980.00,4.32937,122289,54,-886.0000,30.0000,-3986.0000
1752795331.716,352.911,0.33578,1.85165,232659.00,4.29812,122300,54,-886.0000,30.0000,-3986.0000
1752795331.901,353.096,0.33028,1.85653,224460.00,4.35156,122314,54,-868.0000,51.0000,-4002.0000
1752795331.997,353.192,0.33028,1.85592,224460.00,4.45513,122347,54,-866.0000,63.0000,-4009.0000
1752795332.100,353.295,0.33089,1.85714,224550.00,4.45335,122370,54,-881.0000,52.0000,-3999.0000
1752795332.226,353.421,0.33394,1.85226,225530.00,4.43399,122110,54,-881.0000,52.0000,-3999.0000
1752795332.352,353.547,0.33944,1.84799,229031.00,4.36622,122075,54,-879.0000,58.0000,-3996.0000
1752795332.487,353.682,0.34005,1.84615,233940.00,4.27458,122015,54,-889.0000,55.0000,-4014.0000
1752795332.696,353.891,0.34249,1.84493,234440.00,4.26547,122008,54,-889.0000,60.0000,-3995.0000
1752795332.828,354.023,0.34371,1.84371,235728.00,4.24216,122027,54,-869.0000,58.0000,-4010.0000
1752795332.993,354.188,0.34310,1.84310,237525.00,4.21007,122103,54,-871.0000,50.0000,-3999.0000
1752795333.180,354.375,0.34554,1.84249,238029.00,4.20116,122111,54,-873.0000,47.0000,-4017.0000
1752795333.294,354.489,0.34432,1.84249,238223.00,4.19774,121859,54,-892.0000,47.0000,-3997.0000
1752795333.387,354.582,0.34554,1.84188,238223.00,4.19774,121850,54,-866.0000,51.0000,-3996.0000
1752795333.469,354.664,0.34432,1.84188,239836.00,4.16950,121766,54,-873.0000,53.0000,-3993.0000
1752795333.610,354.805,0.34554,1.84127,239836.00,4.16950,121740,54,-889.0000,54.0000,-3998.0000
1752795333.699,354.894,0.34615,1.84066,239428.00,4.17661,121734,54,-887.0000,47.0000,-4004.0000
1752795333.806,355.001,0.34615,1.84066,240441.00,4.15902,121765,54,-876.0000,55.0000,-4006.0000
1752795333.911,355.106,0.34615,1.84066,240441.00,4.15902,121758,54,-881.0000,42.0000,-4004.0000
1752795334.025,355.220,0.33639,1.84982,241145.00,4.14688,121885,54,-875.0000,51.0000,-4000.0000
1752795334.137,355.332,0.33211,1.85531,228353.00,4.37918,121635,54,-872.0000,48.0000,-4004.0000
1752795334.275,355.470,0.33394,1.85348,227860.00,4.38865,121598,54,-873.0000,50.0000,-4003.0000
1752795334.428,355.623,0.33333,1.85348,228043.00,4.38513,121561,54,-870.0000,66.0000,-4007.0000
1752795334.580,355.775,0.33455,1.85409,227951.00,4.38689,121564,54,-872.0000,50.0000,-4004.0000
1752795334.693,355.888,0.33394,1.85348,228628.00,4.37390,121579,54,-878.0000,47.0000,-4011.0000
1752795334.834,356.029,0.33516,1.85348,229617.00,4.42335,121651,54,-868.0000,50.0000,-4006.0000
1752795334.915,356.110,0.33455,1.85104,230112.00,4.35506,121719,54,-876.0000,44.0000,-3997.0000
1752795335.005,356.200,0.33639,1.85226,230112.00,4.34570,121762,54,-877.0000,60.0000,-4007.0000
1752795335.071,356.266,0.33700,1.85226,231383.00,4.32183,121599,54,-877.0000,60.0000,-4007.0000
1752795335.205,356.400,0.33578,1.85043,229492.00,4.35744,121584,54,-885.0000,49.0000,-4018.0000
1752795335.404,356.599,0.33578,1.85104,230794.00,4.33287,121561,54,-877.0000,37.0000,-4011.0000
1752795335.485,356.680,0.33700,1.85043,230794.00,4.33287,121584,54,-867.0000,81.0000,-3983.0000
1752795335.605,356.800,0.33700,1.85043,230980.00,4.32937,121657,54,-858.0000,68.0000,-3996.0000
1752795335.742,356.937,0.33700,1.84982,232659.00,4.32183,121668,54,-882.0000,38.0000,-3999.0000
1752795335.916,357.111,0.33761,1.84982,231073.00,4.32763,121704,54,-884.0000,48.0000,-4002.0000
1752795336.030,357.225,0.33700,1.84921,231073.00,4.32763,121778,54,-881.0000,44.0000,-4002.0000
1752795336.179,357.374,0.33700,1.84921,231073.00,4.32763,121563,54,-871.0000,54.0000,-4001.0000
1752795336.310,357.505,0.34005,1.84982,232161.00,4.30734,121559,54,-874.0000,39.0000,-4003.0000
1752795336.467,357.662,0.33883,1.84799,232659.00,4.29812,121668,54,-881.0000,47.0000,-3993.0000
1752795336.565,357.760,0.33761,1.84860,232349.00,4.30386,121504,54,-878.0000,47.0000,-4000.0000
1752795336.692,357.887,0.33883,1.84799,232565.00,4.29986,121500,54,-874.0000,54.0000,-4004.0000
1752795336.786,357.981,0.33822,1.85165,233252.00,4.28720,121562,54,-871.0000,36.0000,-3987.0000
1752795336.878,358.073,0.33944,1.84737,233346.00,4.28547,121609,54,-891.0000,43.0000,-3992.0000
1752795337.021,358.216,0.33944,1.84737,234345.00,4.26720,121629,54,-876.0000,56.0000,-4022.0000
1752795337.158,358.353,0.33944,1.84737,234345.00,4.26720,121447,54,-871.0000,53.0000,-3998.0000
1752795337.271,358.466,0.33883,1.84676,234345.00,4.26720,121430,54,-883.0000,44.0000,-4004.0000
1752795337.376,358.571,0.33944,1.84737,233846.00,4.27631,121391,54,-875.0000,37.0000,-3998.0000
1752795337.483,358.678,0.34066,1.84554,235537.00,4.29067,121412,54,-881.0000,53.0000,-4004.0000
1752795337.558,358.753,0.34066,1.84493,235537.00,4.24561,121545,54,-885.0000,35.0000,-3998.0000
1752795337.681,358.876,0.34066,1.84554,235537.00,4.23659,121555,54,-881.0000,71.0000,-4010.0000
1752795337.800,358.995,0.34127,1.84493,235537.00,4.24561,121619,54,-881.0000,56.0000,-3994.0000
1752795337.942,359.137,0.34310,1.84615,235633.00,4.24389,121700,54,-874.0000,63.0000,-4008.0000
1752795338.038,359.233,0.34249,1.84432,235131.00,4.25293,121548,54,-888.0000,43.0000,-4007.0000
1752795338.147,359.342,0.34127,1.84554,235633.00,4.24389,121518,54,-878.0000,34.0000,-3985.0000
1752795338.292,359.487,0.34188,1.84615,236230.00,4.24389,121478,54,-881.0000,44.0000,-4002.0000
1752795338.425,359.620,0.34127,1.84554,236230.00,4.23315,121490,54,-873.0000,49.0000,-4012.0000
1752795338.500,359.695,0.34249,1.84493,236134.00,4.23487,121533,54,-873.0000,49.0000,-4012.0000
1752795338.618,359.813,0.34310,1.84371,236326.00,4.23143,121557,54,-886.0000,48.0000,-4016.0000
1752795338.737,359.932,0.34310,1.84371,237428.00,4.21179,121581,54,-862.0000,43.0000,-3996.0000
1752795338.868,360.063,0.34310,1.84371,237428.00,4.21179,121632,54,-873.0000,49.0000,-3995.0000
1752795339.032,360.227,0.34249,1.84371,236326.00,4.23143,121686,54,-876.0000,43.0000,-3998.0000
1752795339.145,360.340,0.34310,1.84432,237332.00,4.21350,121697,54,-876.0000,47.0000,-3996.0000
1752795339.279,360.474,0.34249,1.84371,237525.00,4.21007,121537,54,-861.0000,45.0000,-3999.0000
1752795339.447,360.642,0.34249,1.84432,237835.00,4.20458,121552,54,-884.0000,64.0000,-4007.0000
1752795339.581,360.776,0.34432,1.84432,237428.00,4.21179,121529,54,-875.0000,40.0000,-3999.0000
1752795339.704,360.899,0.34432,1.84310,237118.00,4.21730,121686,54,-869.0000,46.0000,-4009.0000
1752795339.786,360.981,0.34371,1.84249,238126.00,4.19945,121605,54,-879.0000,36.0000,-3993.0000
1752795339.870,361.065,0.34493,1.83944,238533.00,4.19228,121697,54,-871.0000,34.0000,-3998.0000
1752795339.988,361.183,0.34493,1.84188,241258.00,4.14494,121760,54,-883.0000,66.0000,-3997.0000
1752795340.116,361.311,0.34432,1.84127,237525.00,4.21007,121629,54,-895.0000,7.0000,-3982.0000
1752795340.256,361.451,0.34493,1.84310,240244.00,4.16242,121696,54,-865.0000,40.0000,-3994.0000
1752795340.397,361.592,0.34554,1.84188,238223.00,4.19774,121663,54,-883.0000,48.0000,-4002.0000
1752795340.546,361.741,0.34493,1.84188,239330.00,4.17831,121711,54,-870.0000,48.0000,-4005.0000
1752795340.684,361.879,0.34493,1.84066,239233.00,4.18002,121735,54,-879.0000,36.0000,-4006.0000
1752795340.816,362.011,0.34493,1.84127,240244.00,4.16242,121774,54,-879.0000,51.0000,-3998.0000
1752795340.961,362.156,0.34615,1.84005,240948.00,4.15027,121867,54,-871.0000,40.0000,-4008.0000
1752795341.061,362.256,0.34615,1.84188,240948.00,4.15027,121981,54,-881.0000,47.0000,-3990.0000
1752795341.157,362.352,0.34676,1.84005,239428.00,4.17661,121883,54,-871.0000,52.0000,-3997.0000
1752795341.270,362.465,0.34737,1.83944,241455.00,4.14857,121810,54,-864.0000,44.0000,-3998.0000
1752795341.396,362.591,0.34676,1.83944,241145.00,4.14155,121845,54,-867.0000,56.0000,-3991.0000
1752795341.521,362.716,0.34737,1.84005,241145.00,4.14688,121901,54,-882.0000,44.0000,-3993.0000
1752795341.655,362.850,0.34737,1.84066,242161.00,4.12948,121984,54,-871.0000,45.0000,-4016.0000
1752795341.800,362.995,0.34737,1.83761,242260.00,4.12779,121998,54,-872.0000,72.0000,-4010.0000
1752795341.911,363.106,0.34799,1.83883,242260.00,4.12272,122066,54,-877.0000,53.0000,-4008.0000
1752795342.010,363.205,0.34799,1.83822,242260.00,4.12779,122127,54,-879.0000,61.0000,-3998.0000
1752795342.107,363.302,0.34799,1.83761,242769.00,4.11914,122174,54,-872.0000,52.0000,-3998.0000
1752795342.242,363.437,0.34860,1.83822,242260.00,4.12779,122038,54,-868.0000,48.0000,-4003.0000
1752795342.404,363.599,0.34860,1.83822,242868.00,4.11745,122002,54,-875.0000,52.0000,-4000.0000
1752795342.577,363.772,0.34860,1.83639,244398.00,4.09167,122013,54,-878.0000,62.0000,-4014.0000
1752795342.683,363.878,0.34860,1.83761,244398.00,4.09167,122012,54,-873.0000,42.0000,-3998.0000
1752795342.769,363.964,0.34982,1.83761,243378.00,4.10883,121994,54,-878.0000,47.0000,-3997.0000
1752795342.860,364.055,0.34921,1.84005,243578.00,4.10546,122057,54,-877.0000,48.0000,-3999.0000
1752795342.960,364.155,0.34982,1.83700,243988.00,4.09855,122102,54,-878.0000,45.0000,-3995.0000
1752795343.058,364.253,0.34982,1.83822,242868.00,4.11745,122141,54,-878.0000,45.0000,-3995.0000
1752795343.212,364.407,0.35043,1.83516,243068.00,4.11407,122170,54,-879.0000,54.0000,-3995.0000
1752795343.363,364.558,0.34921,1.83578,244188.00,4.09519,122232,54,-870.0000,44.0000,-3998.0000
1752795343.495,364.690,0.35104,1.83639,244800.00,4.08496,122054,54,-867.0000,79.0000,-3994.0000
1752795343.650,364.845,0.35043,1.83516,247776.00,4.03590,122089,54,-865.0000,68.0000,-4001.0000
1752795343.753,364.948,0.35104,1.83639,245723.00,4.06961,122136,54,-880.0000,55.0000,-4004.0000
1752795343.867,365.062,0.35104,1.83578,246337.00,4.05947,122161,54,-874.0000,49.0000,-4007.0000
1752795343.993,365.188,0.34982,1.83394,245312.00,4.07643,122256,54,-879.0000,37.0000,-3997.0000
1752795344.094,365.289,0.35287,1.83516,245312.00,4.07643,122110,54,-870.0000,44.0000,-4003.0000
1752795344.228,365.423,0.35043,1.83394,246128.00,4.06292,122394,54,-868.0000,48.0000,-4005.0000
1752795344.355,365.550,0.35165,1.83394,246749.00,4.05270,122361,54,-883.0000,48.0000,-4005.0000
1752795344.518,365.713,0.35287,1.83394,247054.00,4.04770,122381,54,-882.0000,54.0000,-3997.0000
1752795344.629,365.824,0.35226,1.83455,246642.00,4.05446,122225,54,-876.0000,45.0000,-4023.0000
1752795344.761,365.956,0.35287,1.83333,246540.00,4.05613,122247,54,-875.0000,59.0000,-4002.0000
1752795344.911,366.106,0.35287,1.83394,246743.00,4.05279,122273,54,-882.0000,42.0000,-4015.0000
1752795345.002,366.197,0.35226,1.83394,246743.00,4.05279,122301,54,-866.0000,49.0000,-4003.0000
1752795345.158,366.353,0.35287,1.83394,247359.00,4.04270,122335,54,-888.0000,42.0000,-4008.0000
1752795345.301,366.496,0.35348,1.83272,248802.00,4.04436,122400,54,-879.0000,51.0000,-3996.0000
1752795345.417,366.612,0.35348,1.83272,248802.00,4.01925,122463,54,-874.0000,61.0000,-3993.0000
1752795345.609,366.804,0.35348,1.83211,248905.00,4.01759,122303,54,-871.0000,49.0000,-4002.0000
1752795345.724,366.919,0.35409,1.83333,247772.00,4.03596,122269,54,-865.0000,42.0000,-4000.0000
1752795345.808,367.003,0.35348,1.83272,247874.00,4.03430,122277,54,-873.0000,49.0000,-4004.0000
1752795345.921,367.116,0.35348,1.83211,248595.00,4.02759,122238,54,-872.0000,40.0000,-3996.0000
1752795346.007,367.202,0.35348,1.83150,248595.00,4.02260,122228,54,-874.0000,37.0000,-3980.0000
1752795346.202,367.397,0.35470,1.83150,246331.00,4.02427,122237,54,-882.0000,46.0000,-3996.0000
1752795346.289,367.484,0.35470,1.83211,246331.00,4.05957,122307,54,-880.0000,48.0000,-4009.0000
1752795346.385,367.580,0.35470,1.83028,249008.00,4.01593,122101,54,-874.0000,67.0000,-4010.0000
1752795346.524,367.719,0.35409,1.83211,249524.00,4.00762,122106,54,-885.0000,53.0000,-4004.0000
1752795346.650,367.845,0.35470,1.83089,249317.00,4.01095,122121,54,-883.0000,51.0000,-3989.0000
1752795346.824,368.019,0.35531,1.83150,250662.00,3.98943,122142,54,-877.0000,51.0000,-4007.0000
1752795346.982,368.177,0.35592,1.83150,250144.00,3.99768,122157,54,-886.0000,42.0000,-4004.0000
1752795347.109,368.304,0.35531,1.83211,251180.00,3.98121,122234,54,-880.0000,46.0000,-3993.0000
1752795347.278,368.473,0.35592,1.82967,249111.00,4.01427,122254,54,-872.0000,54.0000,-4003.0000
1752795347.401,368.596,0.35592,1.83028,250351.00,3.99438,122249,54,-879.0000,53.0000,-4001.0000
1752795347.475,368.670,0.35592,1.83089,251284.00,3.97956,122086,54,-879.0000,53.0000,-4001.0000
1752795347.646,368.841,0.35653,1.82906,250248.00,3.99603,122034,54,-886.0000,35.0000,-4007.0000
1752795347.816,369.011,0.35653,1.82723,249731.00,4.00431,122109,54,-870.0000,43.0000,-4004.0000
1752795347.964,369.159,0.35653,1.82906,251388.00,3.97791,122150,54,-875.0000,48.0000,-4005.0000
1752795348.105,369.300,0.35592,1.83211,251802.00,3.97136,122177,54,-873.0000,41.0000,-4004.0000
1752795348.227,369.422,0.35714,1.83089,249214.00,4.01261,122217,54,-881.0000,60.0000,-4002.0000
1752795348.422,369.617,0.35714,1.82906,250455.00,3.99272,122245,54,-875.0000,45.0000,-3996.0000
1752795348.604,369.799,0.35714,1.82967,251492.00,3.97626,122198,54,-865.0000,50.0000,-4011.0000
1752795348.711,369.906,0.35775,1.83089,251492.00,3.97626,122085,54,-884.0000,35.0000,-4013.0000
1752795348.863,370.058,0.35775,1.82906,250559.00,3.99107,122098,54,-879.0000,48.0000,-3999.0000
1752795349.027,370.222,0.35714,1.82845,252531.00,3.97461,122158,54,-876.0000,52.0000,-3992.0000
1752795349.173,370.368,0.35836,1.82845,252531.00,3.95991,122147,54,-876.0000,45.0000,-3993.0000
1752795349.352,370.547,0.35775,1.82906,252740.00,3.95662,122185,54,-874.0000,38.0000,-3999.0000
1752795349.546,370.741,0.35775,1.82845,253156.00,3.96807,122255,54,-870.0000,60.0000,-4018.0000
1752795349.707,370.902,0.35836,1.82906,253261.00,3.95013,122332,54,-871.0000,32.0000,-3995.0000
1752795349.837,371.032,0.35836,1.82845,253261.00,3.94849,122408,54,-884.0000,47.0000,-4002.0000
1752795349.949,371.144,0.35775,1.82784,252116.00,3.96642,122287,54,-868.0000,49.0000,-4000.0000
1752795350.040,371.235,0.35714,1.82906,252011.00,3.95826,122310,54,-884.0000,51.0000,-4010.0000
1752795350.132,371.327,0.35836,1.82723,252011.00,3.96807,122298,54,-870.0000,55.0000,-3999.0000
1752795350.279,371.474,0.36020,1.82784,253366.00,3.94685,122326,54,-886.0000,47.0000,-4007.0000
1752795350.396,371.591,0.35958,1.82784,253993.00,3.93711,122447,54,-881.0000,44.0000,-3984.0000
1752795350.526,371.721,0.35897,1.82845,253993.00,3.93711,122524,54,-879.0000,55.0000,-3990.0000
1752795350.713,371.908,0.35958,1.82662,254099.00,3.93547,122583,54,-886.0000,42.0000,-4002.0000
1752795350.853,372.048,0.35958,1.82601,253887.00,3.93875,122592,54,-862.0000,45.0000,-4013.0000
1752795350.925,372.120,0.36020,1.82601,255250.00,3.91773,122592,54,-862.0000,39.0000,-3992.0000
1752795351.109,372.304,0.36081,1.82601,255143.00,3.91936,122446,54,-870.0000,58.0000,-4005.0000
1752795351.213,372.408,0.36142,1.82723,255560.00,3.91297,122478,54,-872.0000,52.0000,-3995.0000
1752795351.362,372.557,0.36081,1.82662,255356.00,3.91610,122495,54,-862.0000,45.0000,-4023.0000
1752795351.509,372.704,0.36142,1.82662,254727.00,3.92577,122567,54,-878.0000,46.0000,-4004.0000
1752795351.697,372.892,0.36081,1.82540,254833.00,3.92413,122652,54,-878.0000,45.0000,-4015.0000
1752795351.856,373.051,0.36020,1.82479,256296.00,3.90172,122700,54,-879.0000,53.0000,-3997.0000
1752795352.021,373.216,0.36081,1.82540,256296.00,3.90172,122674,54,-860.0000,39.0000,-4000.0000
1752795352.204,373.399,0.36142,1.82418,255462.00,3.91446,122563,54,-865.0000,40.0000,-4008.0000
1752795352.407,373.602,0.36142,1.82418,256296.00,3.90172,122564,54,-889.0000,37.0000,-3998.0000
1752795352.555,373.750,0.36264,1.82540,256928.00,3.89214,122511,54,-864.0000,48.0000,-4007.0000
1752795352.705,373.900,0.36325,1.82418,256093.00,3.90482,122534,54,-877.0000,38.0000,-4010.0000
1752795352.827,374.022,0.36203,1.82418,257035.00,3.89051,122566,54,-877.0000,46.0000,-4013.0000
1752795352.961,374.156,0.36264,1.82418,257453.00,3.88420,122594,54,-870.0000,46.0000,-4013.0000
1752795353.077,374.272,0.36325,1.82479,256618.00,3.89684,122646,54,-880.0000,46.0000,-3999.0000
1752795353.179,374.374,0.36386,1.82418,257775.00,3.87934,122540,54,-877.0000,47.0000,-4018.0000
1752795353.276,374.471,0.36264,1.82295,257357.00,3.88564,122547,54,-879.0000,39.0000,-4000.0000
1752795353.378,374.573,0.36325,1.82234,259355.00,3.85571,122569,54,-864.0000,45.0000,-4005.0000
1752795353.525,374.720,0.36325,1.82295,258194.00,3.87306,122593,54,-862.0000,56.0000,-4002.0000
1752795353.647,374.842,0.36325,1.82295,258828.00,3.86356,122607,54,-862.0000,56.0000,-4002.0000
1752795353.798,374.993,0.36264,1.82295,258302.00,3.87144,122678,54,-872.0000,42.0000,-4001.0000
1752795353.901,375.096,0.36508,1.82112,259464.00,3.85410,122699,54,-879.0000,47.0000,-3977.0000
1752795353.999,375.194,0.36569,1.82051,259572.00,3.85248,122747,54,-866.0000,52.0000,-4001.0000
1752795354.095,375.290,0.36569,1.82234,260847.00,3.83365,122537,54,-870.0000,42.0000,-4007.0000
1752795354.191,375.386,0.36569,1.82051,259262.00,3.85710,122643,54,-871.0000,44.0000,-4009.0000
1752795354.366,375.561,0.36508,1.81990,260629.00,3.83687,122623,54,-880.0000,47.0000,-4008.0000
1752795354.462,375.657,0.36752,1.81990,260629.00,3.83687,122615,54,-871.0000,55.0000,-4000.0000
1752795354.632,375.827,0.36630,1.82173,261706.00,3.82107,122658,54,-878.0000,44.0000,-4005.0000
1752795354.748,375.943,0.36630,1.81746,259899.00,3.84764,122684,54,-880.0000,40.0000,-4000.0000
1752795354.895,376.090,0.36630,1.81990,261377.00,3.83983,122731,54,-865.0000,48.0000,-4012.0000
1752795355.012,376.207,0.36752,1.82051,261377.00,3.82589,122774,54,-874.0000,51.0000,-4017.0000
1752795355.144,376.339,0.36630,1.82051,261486.00,3.83044,122638,54,-861.0000,47.0000,-3997.0000
1752795355.249,376.444,0.36630,1.81929,261486.00,3.82428,122580,54,-869.0000,32.0000,-4001.0000
1752795355.395,376.590,0.36752,1.81929,262547.00,3.80884,122513,54,-877.0000,48.0000,-4006.0000
1752795355.514,376.709,0.36752,1.81929,262237.00,3.81334,122545,54,-855.0000,55.0000,-4000.0000
1752795355.625,376.820,0.36813,1.81868,262878.00,3.80403,122649,54,-865.0000,44.0000,-4021.0000
1752795355.803,376.998,0.36691,1.81746,263410.00,3.79635,122674,54,-868.0000,49.0000,-3990.0000
1752795355.971,377.166,0.36752,1.81868,261816.00,3.81947,122711,54,-866.0000,52.0000,-4008.0000
1752795356.074,377.269,0.36813,1.81929,261926.00,3.81786,122752,54,-858.0000,46.0000,-4006.0000
1752795356.212,377.407,0.36813,1.81807,263521.00,3.79476,122557,54,-858.0000,49.0000,-4002.0000
1752795356.413,377.608,0.36813,1.81746,263831.00,3.79635,122475,54,-872.0000,47.0000,-4003.0000
1752795356.558,377.753,0.36874,1.81746,263831.00,3.79030,122436,54,-877.0000,48.0000,-3982.0000
1752795356.677,377.872,0.36935,1.81685,264054.00,3.78710,122408,54,-887.0000,44.0000,-3986.0000
1752795356.846,378.041,0.36874,1.81685,264698.00,3.77788,122403,54,-857.0000,43.0000,-4011.0000
1752795356.921,378.116,0.36935,1.81624,264165.00,3.78551,122458,54,-857.0000,43.0000,-4011.0000
1752795357.054,378.249,0.36996,1.81807,264388.00,3.77028,122475,54,-882.0000,35.0000,-4000.0000
1752795357.184,378.379,0.36996,1.81624,265232.00,3.78232,122533,54,-879.0000,35.0000,-3997.0000
1752795357.291,378.486,0.36996,1.81563,265232.00,3.77028,122394,54,-873.0000,48.0000,-4007.0000
1752795357.403,378.598,0.36996,1.81319,264921.00,3.77470,122365,54,-884.0000,37.0000,-4003.0000
1752795357.551,378.746,0.37118,1.81624,265456.00,3.76710,122355,54,-864.0000,37.0000,-3999.0000
1752795357.679,378.874,0.37118,1.81441,265990.00,3.75953,122345,54,-873.0000,49.0000,-4003.0000
1752795357.842,379.037,0.37179,1.81441,266638.00,3.74287,122375,54,-868.0000,32.0000,-3997.0000
1752795357.932,379.127,0.37179,1.81380,266638.00,3.75040,122416,54,-872.0000,46.0000,-4014.0000
1752795358.071,379.266,0.37118,1.81441,267287.00,3.74129,122479,54,-865.0000,55.0000,-4004.0000
1752795358.181,379.376,0.37179,1.81502,267937.00,3.73222,122514,54,-873.0000,60.0000,-4003.0000
1752795358.289,379.484,0.37241,1.81380,266751.00,3.74881,122369,54,-871.0000,50.0000,-4004.0000
1752795358.363,379.558,0.37302,1.81380,268050.00,3.73064,122383,54,-871.0000,50.0000,-4004.0000
1752795358.466,379.661,0.37179,1.81380,268050.00,3.73064,122352,54,-871.0000,46.0000,-4007.0000
1752795358.549,379.744,0.37363,1.81380,269126.00,3.71573,122380,54,-865.0000,48.0000,-3997.0000
1752795358.697,379.892,0.37302,1.81380,268050.00,3.73064,122395,54,-859.0000,39.0000,-4002.0000
1752795358.791,379.986,0.37302,1.81380,268050.00,3.73064,122462,54,-870.0000,39.0000,-4008.0000
1752795358.920,380.115,0.37241,1.81258,268164.00,3.72159,122509,54,-868.0000,42.0000,-3999.0000
1752795359.061,380.256,0.37485,1.81197,268164.00,3.72905,122551,54,-873.0000,37.0000,-3991.0000
1752795359.201,380.396,0.37363,1.81319,267513.00,3.73813,122608,54,-873.0000,41.0000,-4018.0000
1752795359.385,380.580,0.37363,1.81258,268050.00,3.73064,122417,54,-868.0000,56.0000,-4014.0000
1752795359.557,380.752,0.37302,1.81197,269240.00,3.71415,122385,54,-876.0000,35.0000,-3979.0000
1752795359.762,380.957,0.37302,1.81441,268164.00,3.72905,122398,54,-865.0000,38.0000,-4003.0000
1752795359.882,381.077,0.37302,1.81258,268164.00,3.72905,122439,54,-862.0000,54.0000,-4006.0000
1752795359.994,381.189,0.37363,1.81380,268278.00,3.72747,122482,54,-862.0000,54.0000,-4006.0000
1752795360.127,381.322,0.37363,1.81319,268164.00,3.72905,122510,54,-871.0000,33.0000,-4010.0000
1752795360.234,381.429,0.37424,1.81319,268702.00,3.72159,122587,54,-872.0000,46.0000,-4010.0000
1752795360.354,381.549,0.37302,1.81319,267513.00,3.73813,122359,54,-877.0000,39.0000,-4006.0000
1752795360.484,381.679,0.37424,1.81319,268816.00,3.72001,122318,54,-867.0000,58.0000,-4016.0000
1752795360.617,381.812,0.37241,1.81258,269240.00,3.71415,122309,54,-873.0000,45.0000,-3991.0000
1752795360.740,381.935,0.37363,1.81380,267627.00,3.73654,122360,54,-867.0000,52.0000,-4011.0000
1752795360.872,382.067,0.37363,1.81319,269779.00,3.70673,122403,54,-867.0000,56.0000,-4013.0000
1752795361.002,382.197,0.37363,1.81319,270203.00,3.71415,122476,54,-882.0000,57.0000,-4002.0000
1752795361.076,382.271,0.37424,1.81380,270203.00,3.70091,122559,54,-880.0000,42.0000,-3997.0000
1752795361.166,382.361,0.37363,1.81197,268278.00,3.72747,122395,54,-880.0000,42.0000,-3997.0000
1752795361.284,382.479,0.37485,1.81258,269779.00,3.70673,122339,54,-875.0000,47.0000,-4007.0000
1752795361.427,382.622,0.37485,1.81013,270548.00,3.69620,122362,54,-874.0000,52.0000,-4002.0000
1752795361.560,382.755,0.37424,1.81074,270548.00,3.69620,122387,54,-869.0000,48.0000,-4011.0000
1752795361.682,382.877,0.37546,1.81074,269893.00,3.70516,122409,54,-876.0000,42.0000,-4001.0000
1752795361.854,383.049,0.37546,1.81136,270973.00,3.69040,122490,54,-868.0000,39.0000,-3987.0000
1752795362.000,383.195,0.37668,1.81197,270663.00,3.69463,122558,54,-872.0000,47.0000,-4018.0000
1752795362.141,383.336,0.37546,1.81136,270548.00,3.69620,122596,54,-867.0000,43.0000,-3982.0000
1752795362.261,383.456,0.37607,1.81074,271088.00,3.70201,122514,54,-877.0000,49.0000,-3994.0000
1752795362.347,383.542,0.37546,1.81136,271088.00,3.68883,122502,54,-879.0000,47.0000,-4001.0000
1752795362.444,383.639,0.37607,1.80891,271744.00,3.67992,122530,54,-865.0000,40.0000,-4002.0000
1752795362.590,383.785,0.37546,1.81136,271088.00,3.68883,122569,54,-874.0000,42.0000,-3996.0000
1752795362.774,383.969,0.37607,1.81013,271976.00,3.69306,122658,54,-877.0000,49.0000,-4013.0000
1752795362.919,384.114,0.37546,1.81013,271976.00,3.67679,122644,54,-865.0000,55.0000,-4005.0000
1752795363.126,384.321,0.37546,1.80891,272402.00,3.67104,122712,54,-872.0000,49.0000,-4004.0000
1752795363.264,384.459,0.37668,1.80952,272402.00,3.67104,122777,54,-877.0000,53.0000,-4004.0000
1752795363.389,384.584,0.37668,1.81013,271319.00,3.68570,122678,54,-865.0000,29.0000,-3993.0000
1752795363.455,384.650,0.37546,1.81136,271319.00,3.68570,122669,54,-865.0000,29.0000,-3993.0000
1752795363.616,384.811,0.37729,1.81013,270663.00,3.69463,122649,54,-862.0000,64.0000,-4011.0000
1752795363.773,384.968,0.37668,1.80952,273486.00,3.65648,122718,54,-871.0000,35.0000,-4008.0000
1752795363.896,385.091,0.37729,1.80891,272634.00,3.66792,122751,54,-871.0000,38.0000,-4004.0000
1752795364.019,385.214,0.37729,1.81013,273176.00,3.66063,122802,54,-871.0000,46.0000,-4001.0000
1752795364.175,385.370,0.37912,1.80891,272634.00,3.66792,122836,54,-883.0000,42.0000,-3991.0000
1752795364.270,385.465,0.37790,1.80952,273410.00,3.65751,122918,54,-865.0000,43.0000,-4007.0000
1752795364.388,385.583,0.37851,1.80830,273293.00,3.65337,122960,54,-881.0000,47.0000,-3987.0000
1752795364.482,385.677,0.37790,1.80891,273293.00,3.65907,122823,54,-881.0000,56.0000,-4007.0000
1752795364.631,385.826,0.37851,1.80891,274615.00,3.64146,122832,54,-866.0000,37.0000,-4011.0000
1752795364.770,385.965,0.37851,1.80769,273953.00,3.65181,122838,54,-869.0000,54.0000,-3983.0000
1752795364.908,386.103,0.37851,1.80647,275587.00,3.65025,122884,54,-879.0000,36.0000,-3997.0000
1752795365.043,386.238,0.37912,1.80891,275587.00,3.62861,122911,54,-878.0000,48.0000,-4010.0000
1752795365.158,386.353,0.37851,1.80830,275705.00,3.62706,122945,54,-868.0000,55.0000,-4009.0000
1752795365.249,386.444,0.37912,1.80525,274615.00,3.64146,122976,54,-874.0000,51.0000,-4005.0000
1752795365.352,386.547,0.37973,1.80647,275278.00,3.63269,123022,54,-864.0000,49.0000,-4010.0000
1752795365.457,386.652,0.38095,1.80708,275042.00,3.63580,122882,54,-864.0000,42.0000,-4000.0000
1752795365.587,386.782,0.37973,1.80769,274732.00,3.63990,122879,54,-870.0000,42.0000,-3996.0000
1752795365.712,386.907,0.38278,1.80403,277701.00,3.61834,122895,54,-870.0000,54.0000,-3995.0000
1752795365.836,387.031,0.37912,1.80647,277701.00,3.60099,122917,54,-859.0000,47.0000,-4006.0000
1752795365.943,387.138,0.38034,1.80525,277701.00,3.60099,122984,54,-873.0000,46.0000,-4019.0000
1752795366.040,387.235,0.38217,1.80525,276606.00,3.61524,123000,54,-872.0000,40.0000,-4002.0000
1752795366.148,387.343,0.38156,1.80403,276606.00,3.61524,122997,54,-878.0000,32.0000,-3994.0000
1752795366.260,387.455,0.38217,1.80403,278059.00,3.61524,123065,54,-869.0000,57.0000,-4007.0000
1752795366.365,387.560,0.38217,1.80464,278059.00,3.59636,123119,54,-868.0000,42.0000,-4003.0000
1752795366.459,387.654,0.38339,1.80403,278369.00,3.59235,123053,54,-873.0000,55.0000,-4006.0000
1752795366.645,387.840,0.38339,1.80342,278608.00,3.58927,123034,54,-864.0000,52.0000,-3990.0000
1752795366.774,387.969,0.38217,1.80464,279948.00,3.57209,122986,54,-865.0000,55.0000,-3994.0000
1752795366.884,388.079,0.38400,1.80403,277939.00,3.59790,123024,54,-872.0000,39.0000,-4001.0000
1752795367.019,388.214,0.38217,1.80281,280378.00,3.56661,123086,54,-870.0000,38.0000,-4005.0000
1752795367.137,388.332,0.38339,1.80281,278727.00,3.57670,123120,54,-859.0000,42.0000,-4007.0000
1752795367.301,388.496,0.38339,1.80342,278417.00,3.58773,123125,54,-865.0000,51.0000,-3990.0000
1752795367.444,388.639,0.38278,1.80281,279948.00,3.59172,123182,54,-870.0000,47.0000,-3999.0000
1752795367.523,388.718,0.38339,1.80342,279948.00,3.57209,123059,54,-862.0000,39.0000,-3995.0000
1752795367.676,388.871,0.38278,1.80342,279157.00,3.57516,123000,54,-870.0000,38.0000,-3994.0000
1752795367.784,388.979,0.38278,1.80281,279157.00,3.58220,122979,54,-859.0000,57.0000,-3998.0000
1752795367.932,389.127,0.38339,1.80098,279828.00,3.57362,123019,54,-863.0000,42.0000,-4000.0000
1752795368.060,389.255,0.38339,1.80342,281912.00,3.54720,123052,54,-865.0000,62.0000,-4002.0000
1752795368.160,389.355,0.38400,1.80342,279828.00,3.57362,123098,54,-867.0000,48.0000,-3997.0000
1752795368.236,389.431,0.38462,1.80220,279397.00,3.57912,123194,54,-878.0000,45.0000,-3997.0000
1752795368.340,389.535,0.38523,1.80220,280620.00,3.56354,123200,54,-872.0000,44.0000,-4015.0000
1752795368.502,389.697,0.38462,1.80220,280189.00,3.56901,123268,54,-855.0000,40.0000,-4001.0000
1752795368.630,389.825,0.38462,1.80281,281171.00,3.55654,123089,54,-867.0000,36.0000,-3991.0000
1752795368.769,389.964,0.38462,1.80220,281724.00,3.54957,123068,54,-871.0000,50.0000,-3993.0000
1752795368.919,390.114,0.38523,1.80037,281967.00,3.55501,123073,54,-861.0000,39.0000,-4003.0000
1752795369.013,390.208,0.38584,1.80098,281967.00,3.54651,123103,54,-873.0000,39.0000,-4001.0000
1752795369.161,390.356,0.38584,1.80220,280189.00,3.56901,123090,54,-867.0000,37.0000,-4006.0000
1752795369.264,390.459,0.38645,1.79976,282520.00,3.53957,123134,54,-867.0000,51.0000,-3995.0000
1752795369.458,390.653,0.38645,1.79731,282520.00,3.53957,123190,54,-874.0000,42.0000,-4018.0000
1752795369.581,390.776,0.38767,1.79976,283506.00,3.52726,123227,54,-854.0000,42.0000,-4012.0000
1752795369.717,390.912,0.38584,1.79915,283996.00,3.52117,123093,54,-872.0000,53.0000,-4019.0000
1752795369.814,391.009,0.38706,1.79976,282642.00,3.53804,123084,54,-859.0000,43.0000,-4011.0000
1752795369.886,391.081,0.38645,1.79853,283751.00,3.52422,123064,54,-864.0000,43.0000,-4011.0000
1752795370.014,391.209,0.38645,1.79792,284306.00,3.51733,123060,54,-861.0000,51.0000,-4002.0000
1752795370.113,391.308,0.38828,1.79792,285108.00,3.50744,123122,54,-877.0000,46.0000,-3995.0000
1752795370.217,391.412,0.38828,1.80037,284552.00,3.51429,123172,54,-873.0000,35.0000,-3998.0000
1752795370.317,391.512,0.38889,1.79426,284798.00,3.51125,123239,54,-873.0000,35.0000,-3998.0000
1752795370.474,391.669,0.38706,1.79548,288705.00,3.46374,123231,54,-877.0000,35.0000,-4005.0000
1752795370.629,391.824,0.39011,1.79609,286036.00,3.49606,123274,54,-870.0000,46.0000,-3993.0000
1752795370.781,391.976,0.39011,1.79853,285912.00,3.49757,123148,54,-879.0000,38.0000,-3992.0000
1752795370.929,392.124,0.38950,1.79487,285045.00,3.50821,123149,54,-862.0000,44.0000,-3986.0000
1752795371.081,392.276,0.39133,1.79548,284488.00,3.51508,123209,54,-874.0000,39.0000,-4002.0000
1752795371.212,392.407,0.39133,1.79609,287652.00,3.47642,123234,54,-869.0000,34.0000,-4008.0000
1752795371.337,392.532,0.39133,1.79487,288087.00,3.47570,123291,54,-866.0000,50.0000,-4003.0000
1752795371.461,392.656,0.39133,1.79853,288087.00,3.47117,123334,54,-867.0000,51.0000,-3998.0000
1752795371.614,392.809,0.39194,1.79426,289082.00,3.45922,123366,54,-864.0000,56.0000,-4003.0000
1752795371.796,392.991,0.39072,1.79365,288772.00,3.46293,123333,54,-860.0000,53.0000,-4017.0000
1752795371.939,393.134,0.39133,1.79365,288212.00,3.46966,123184,54,-864.0000,39.0000,-3994.0000
1752795372.093,393.288,0.39194,1.79365,288396.00,3.46745,123201,54,-868.0000,57.0000,-4003.0000
1752795372.211,393.406,0.39194,1.79182,290148.00,3.46142,123180,54,-868.0000,57.0000,-4003.0000
1752795372.376,393.571,0.39316,1.79243,290148.00,3.44651,123224,54,-891.0000,46.0000,-4003.0000
1752795372.472,393.667,0.39438,1.79365,290401.00,3.43834,123257,54,-867.0000,48.0000,-3995.0000
1752795372.565,393.760,0.39377,1.79182,290401.00,3.44351,123325,54,-860.0000,49.0000,-3994.0000
1752795372.728,393.923,0.39438,1.79304,291401.00,3.43169,123204,54,-861.0000,51.0000,-4012.0000
1752795372.894,394.089,0.39499,1.79365,291528.00,3.43020,123190,54,-862.0000,44.0000,-4013.0000
1752795373.029,394.224,0.39316,1.79243,291837.00,3.42656,123155,54,-872.0000,39.0000,-4007.0000
1752795373.111,394.306,0.39499,1.79121,291274.00,3.43319,123210,54,-856.0000,48.0000,-4001.0000
1752795373.238,394.433,0.39499,1.79060,292785.00,3.41547,123184,54,-862.0000,50.0000,-4008.0000
1752795373.336,394.531,0.39560,1.79060,293350.00,3.40889,123216,54,-863.0000,36.0000,-4002.0000
1752795373.495,394.690,0.39560,1.79060,293916.00,3.40232,123278,54,-859.0000,48.0000,-3996.0000
1752795373.622,394.817,0.39499,1.79060,293350.00,3.40889,123268,54,-867.0000,46.0000,-4006.0000
1752795373.747,394.942,0.39499,1.78999,293350.00,3.40889,123154,54,-876.0000,35.0000,-4011.0000
1752795373.903,395.098,0.39683,1.78938,294870.00,3.40232,123176,54,-876.0000,50.0000,-4000.0000
1752795374.041,395.236,0.39560,1.78999,296007.00,3.39132,123108,54,-873.0000,41.0000,-3996.0000
1752795374.140,395.335,0.39683,1.78877,296007.00,3.37830,123189,54,-863.0000,57.0000,-4008.0000
1752795374.251,395.446,0.39744,1.78938,294303.00,3.39786,123212,54,-872.0000,38.0000,-4002.0000
1752795374.358,395.553,0.39744,1.78816,295000.00,3.38983,123195,54,-872.0000,39.0000,-4009.0000
1752795374.513,395.708,0.39805,1.78938,294870.00,3.39132,123279,54,-868.0000,41.0000,-4007.0000
1752795374.677,395.872,0.39744,1.78877,296267.00,3.37533,123099,54,-879.0000,53.0000,-3993.0000
1752795374.851,396.046,0.39805,1.78877,296836.00,3.36886,123082,54,-869.0000,65.0000,-4015.0000
1752795374.944,396.139,0.39744,1.78816,296267.00,3.37533,123077,54,-869.0000,47.0000,-3988.0000
1752795375.046,396.241,0.39927,1.78755,296836.00,3.36886,123060,54,-865.0000,42.0000,-4001.0000
1752795375.157,396.352,0.39927,1.78755,297668.00,3.35944,123105,54,-859.0000,34.0000,-3995.0000
1752795375.276,396.471,0.39927,1.78632,298502.00,3.35006,123089,54,-867.0000,42.0000,-4003.0000
1752795375.386,396.581,0.40049,1.78632,298633.00,3.34858,123118,54,-857.0000,52.0000,-4010.0000
1752795375.490,396.685,0.39988,1.78632,301235.00,3.31966,123136,54,-866.0000,40.0000,-4004.0000
1752795375.642,396.837,0.40049,1.78449,299779.00,3.33579,123014,54,-866.0000,38.0000,-3999.0000
1752795375.770,396.965,0.40171,1.78571,299074.00,3.34365,122914,54,-869.0000,36.0000,-4001.0000
1752795375.866,397.061,0.40171,1.78510,299647.00,3.33726,122922,54,-871.0000,43.0000,-3989.0000
1752795376.002,397.197,0.40171,1.78388,298811.00,3.34660,122929,54,-876.0000,42.0000,-4011.0000
1752795376.136,397.331,0.39988,1.78449,301060.00,3.32160,122948,54,-876.0000,35.0000,-3991.0000
1752795376.316,397.511,0.40232,1.78510,301635.00,3.32306,122958,54,-872.0000,55.0000,-4012.0000
1752795376.420,397.615,0.40293,1.78327,301635.00,3.31526,123010,54,-871.0000,33.0000,-4012.0000
1752795376.560,397.755,0.40232,1.78266,301193.00,3.32013,123082,54,-864.0000,57.0000,-4014.0000
1752795376.720,397.915,0.40293,1.78266,302920.00,3.30120,122991,54,-857.0000,45.0000,-4003.0000
1752795376.841,398.036,0.40293,1.78266,300751.00,3.32501,122900,54,-857.0000,45.0000,-4003.0000
1752795377.051,398.246,0.40415,1.78266,302477.00,3.30603,122853,54,-860.0000,57.0000,-4006.0000
1752795377.189,398.384,0.40415,1.78266,303457.00,3.29536,122879,54,-872.0000,47.0000,-4012.0000
1752795377.395,398.590,0.40415,1.78205,303323.00,3.30456,122915,54,-865.0000,36.0000,-4004.0000
1752795377.504,398.699,0.40598,1.78083,303323.00,3.29682,122932,54,-867.0000,43.0000,-4008.0000
1752795377.647,398.842,0.40476,1.78144,304884.00,3.27993,122975,54,-870.0000,49.0000,-4012.0000
1752795377.830,399.025,0.40476,1.77961,304884.00,3.27993,123008,54,-870.0000,37.0000,-4013.0000
1752795378.008,399.203,0.40598,1.77961,305464.00,3.26750,123056,54,-872.0000,39.0000,-4004.0000
1752795378.105,399.300,0.40598,1.77839,305464.00,3.27371,122881,54,-875.0000,34.0000,-4000.0000
1752795378.191,399.386,0.40659,1.78022,306180.00,3.26605,122870,54,-858.0000,44.0000,-3999.0000
1752795378.295,399.490,0.40659,1.78022,305908.00,3.26895,122861,54,-868.0000,51.0000,-4013.0000
1752795378.436,399.631,0.40781,1.77656,305600.00,3.27225,122879,54,-866.0000,48.0000,-4004.0000
1752795378.550,399.745,0.40842,1.77900,309366.00,3.23241,122879,54,-865.0000,51.0000,-4010.0000
1752795378.651,399.846,0.40904,1.77839,307171.00,3.25551,122904,54,-868.0000,60.0000,-4000.0000
1752795378.765,399.960,0.40842,1.78083,308062.00,3.24610,122956,54,-875.0000,48.0000,-3998.0000
1752795378.907,400.102,0.40842,1.77778,305427.00,3.27410,122986,54,-872.0000,48.0000,-3999.0000
1752795379.030,400.225,0.40842,1.78022,309058.00,3.23563,122843,54,-872.0000,48.0000,-3999.0000
1752795379.228,400.423,0.40904,1.77717,306008.00,3.26789,122752,54,-865.0000,51.0000,-4004.0000
1752795379.372,400.567,0.40904,1.77717,309058.00,3.22808,122773,54,-861.0000,54.0000,-4004.0000
1752795379.517,400.712,0.40904,1.77656,309058.00,3.23563,122730,54,-878.0000,40.0000,-4012.0000
1752795379.686,400.881,0.40965,1.77595,309919.00,3.22664,122762,54,-863.0000,44.0000,-4009.0000
1752795379.811,401.006,0.40965,1.77595,309642.00,3.22953,122763,54,-867.0000,37.0000,-3994.0000
1752795379.980,401.175,0.41026,1.77473,310366.00,3.22200,122826,54,-870.0000,47.0000,-4001.0000
1752795380.105,401.300,0.40965,1.77411,311091.00,3.21449,122826,54,-865.0000,36.0000,-3998.0000
1752795380.219,401.414,0.41026,1.77473,311677.00,3.20844,122892,54,-872.0000,45.0000,-3985.0000
1752795380.333,401.528,0.41087,1.77595,311817.00,3.20701,122698,54,-856.0000,51.0000,-4024.0000
1752795380.487,401.682,0.41148,1.77534,311817.00,3.20701,122701,54,-864.0000,49.0000,-4008.0000
1752795380.596,401.791,0.41148,1.77350,311061.00,3.21480,122691,54,-878.0000,43.0000,-4010.0000
1752795380.718,401.913,0.41148,1.77473,312236.00,3.20270,122648,54,-869.0000,30.0000,-4000.0000
1752795380.828,402.023,0.41209,1.77411,312684.00,3.19811,122675,54,-866.0000,47.0000,-4003.0000
1752795380.957,402.152,0.41270,1.77289,313862.00,3.18611,122708,54,-867.0000,43.0000,-3993.0000
1752795381.211,402.406,0.41270,1.77411,314003.00,3.18468,122696,54,-876.0000,59.0000,-4008.0000
1752795381.363,402.558,0.41209,1.77350,314003.00,3.18468,122773,54,-868.0000,46.0000,-4011.0000
1752795381.453,402.648,0.41331,1.77228,313273.00,3.19210,122823,54,-857.0000,45.0000,-4005.0000
1752795381.582,402.777,0.41331,1.77228,314734.00,3.17728,122674,54,-867.0000,53.0000,-3998.0000
1752795381.726,402.921,0.41331,1.77106,315917.00,3.17728,122696,54,-876.0000,43.0000,-3998.0000
1752795381.874,403.069,0.41392,1.77228,315917.00,3.16539,122643,54,-876.0000,37.0000,-3995.0000
1752795382.066,403.261,0.41453,1.77167,316059.00,3.16705,122669,54,-871.0000,42.0000,-3995.0000
1752795382.203,403.398,0.41575,1.77228,316059.00,3.16396,122721,54,-868.0000,41.0000,-3990.0000
1752795382.354,403.549,0.41514,1.77167,315301.00,3.17157,122769,54,-870.0000,56.0000,-4007.0000
1752795382.451,403.646,0.41636,1.76923,317530.00,3.14930,122778,54,-861.0000,53.0000,-4020.0000
1752795382.556,403.751,0.41453,1.77106,316344.00,3.16112,122832,54,-851.0000,44.0000,-4016.0000
1752795382.701,403.896,0.41575,1.76923,317673.00,3.14789,122762,54,-871.0000,43.0000,-3993.0000
1752795382.842,404.037,0.41575,1.76862,318268.00,3.14201,122716,54,-871.0000,33.0000,-4003.0000
1752795382.937,404.132,0.41514,1.76923,319006.00,3.13473,122667,54,-863.0000,40.0000,-3990.0000
1752795383.091,404.286,0.41819,1.76862,320054.00,3.13331,122660,54,-866.0000,44.0000,-4009.0000
1752795383.237,404.432,0.41758,1.76801,315727.00,3.12447,122676,54,-877.0000,51.0000,-4005.0000
1752795383.350,404.545,0.41819,1.76740,315727.00,3.16729,122702,54,-877.0000,51.0000,-4005.0000
1752795383.534,404.729,0.41758,1.76679,321086.00,3.11883,122711,54,-862.0000,44.0000,-4016.0000
1752795383.661,404.856,0.41880,1.76740,320778.00,3.11443,122790,54,-869.0000,47.0000,-4011.0000
1752795383.809,405.004,0.42002,1.76679,320778.00,3.11741,122814,54,-867.0000,35.0000,-3988.0000
1752795383.974,405.169,0.42002,1.76618,320471.00,3.12041,122635,54,-873.0000,36.0000,-3998.0000
1752795384.104,405.299,0.41880,1.76679,321522.00,3.11020,122637,54,-850.0000,50.0000,-4002.0000
1752795384.256,405.451,0.42063,1.76557,323014.00,3.11161,122776,54,-857.0000,58.0000,-4010.0000
1752795384.381,405.576,0.42125,1.76557,323014.00,3.09584,122593,54,-859.0000,60.0000,-3996.0000
1752795384.475,405.670,0.42063,1.76618,323614.00,3.09009,122618,54,-871.0000,45.0000,-4010.0000
1752795384.621,405.816,0.42125,1.76435,324069.00,3.08576,122665,54,-881.0000,29.0000,-3995.0000
1752795384.766,405.961,0.42063,1.76374,324216.00,3.08436,122781,54,-865.0000,43.0000,-3992.0000
1752795384.898,406.093,0.42125,1.76496,324511.00,3.08156,122806,54,-851.0000,43.0000,-4009.0000
1752795385.042,406.237,0.42186,1.76435,325113.00,3.07585,122656,54,-860.0000,55.0000,-4004.0000
1752795385.136,406.331,0.42308,1.76374,325716.00,3.07015,122653,54,-852.0000,59.0000,-4014.0000
1752795385.306,406.501,0.42247,1.76435,325409.00,3.07305,122638,54,-864.0000,36.0000,-4010.0000
1752795385.453,406.648,0.42247,1.76374,325409.00,3.07305,122654,54,-854.0000,34.0000,-3993.0000
1752795385.620,406.815,0.42247,1.76129,325261.00,3.07445,122664,54,-874.0000,32.0000,-3995.0000
1752795385.789,406.984,0.42430,1.76252,327828.00,3.05038,122723,54,-876.0000,57.0000,-3998.0000
1752795385.889,407.084,0.42491,1.76129,327521.00,3.05323,122777,54,-867.0000,43.0000,-3998.0000
1752795385.995,407.190,0.42369,1.76068,327828.00,3.05038,122839,54,-852.0000,60.0000,-4001.0000
1752795386.169,407.364,0.42552,1.76129,328584.00,3.04336,122657,54,-871.0000,41.0000,-4001.0000
1752795386.344,407.539,0.42552,1.75885,330709.00,3.02380,122717,54,-859.0000,47.0000,-4012.0000
1752795386.496,407.691,0.42613,1.76007,330403.00,3.02661,122768,54,-852.0000,35.0000,-3993.0000
1752795386.654,407.849,0.42674,1.76190,330251.00,3.02799,122783,54,-866.0000,37.0000,-3996.0000
1752795386.757,407.952,0.42613,1.76007,329794.00,3.03220,122796,54,-878.0000,36.0000,-3989.0000
1752795386.882,408.077,0.42674,1.75763,332385.00,3.02384,122817,54,-864.0000,38.0000,-3999.0000
1752795386.959,408.154,0.42735,1.75824,332385.00,3.00856,122905,54,-871.0000,35.0000,-3988.0000
1752795387.043,408.238,0.42857,1.75763,331926.00,3.01271,122959,54,-845.0000,54.0000,-4004.0000
1752795387.133,408.328,0.42918,1.75641,332843.00,3.00442,122805,54,-879.0000,30.0000,-3990.0000
1752795387.293,408.488,0.42918,1.75519,332843.00,3.00442,122801,54,-869.0000,41.0000,-3999.0000
1752795387.392,408.587,0.42918,1.75580,330398.00,3.02664,122798,54,-868.0000,49.0000,-4007.0000
1752795387.491,408.686,0.43040,1.75580,335145.00,2.98653,122803,54,-865.0000,45.0000,-4011.0000
1752795387.577,408.772,0.42979,1.75519,335605.00,2.98378,122879,54,-850.0000,37.0000,-3990.0000
1752795387.666,408.861,0.42979,1.75458,335605.00,2.97969,122923,54,-866.0000,41.0000,-4008.0000
1752795387.759,408.954,0.43040,1.75641,335145.00,2.98378,122959,54,-883.0000,27.0000,-4002.0000
1752795387.870,409.065,0.43162,1.75763,337148.00,2.96605,122785,54,-882.0000,42.0000,-3989.0000
1752795387.954,409.149,0.43223,1.75397,336686.00,2.97012,122761,54,-866.0000,52.0000,-3999.0000
1752795388.085,409.280,0.43284,1.75397,338852.00,2.95113,122730,54,-873.0000,39.0000,-3989.0000
1752795388.165,409.360,0.43223,1.75153,335302.00,2.98238,122727,54,-873.0000,39.0000,-3989.0000
1752795388.340,409.535,0.43407,1.75336,339629.00,2.94438,122758,54,-870.0000,50.0000,-4010.0000
1752795388.444,409.639,0.43284,1.75153,338547.00,2.95380,122782,54,-870.0000,50.0000,-4010.0000
1752795388.629,409.824,0.43407,1.75031,340092.00,2.94038,122866,54,-868.0000,37.0000,-3999.0000
1752795388.744,409.939,0.43346,1.75031,342273.00,2.92696,122864,54,-854.0000,54.0000,-4004.0000
1752795388.822,410.017,0.43468,1.75092,342273.00,2.92164,122713,54,-854.0000,34.0000,-4016.0000
1752795388.957,410.152,0.43590,1.75031,341187.00,2.93094,122686,54,-868.0000,47.0000,-3991.0000
1752795389.133,410.328,0.43651,1.75092,342432.00,2.92028,122782,54,-864.0000,36.0000,-4003.0000
1752795389.318,410.513,0.43651,1.74847,343215.00,2.91362,122678,54,-866.0000,43.0000,-4002.0000
1752795389.517,410.712,0.43773,1.74847,343534.00,2.91091,122693,54,-863.0000,36.0000,-4022.0000
1752795389.644,410.839,0.43651,1.74786,345268.00,2.91621,122770,54,-875.0000,34.0000,-4007.0000
1752795389.711,410.906,0.43834,1.74847,345268.00,2.89630,122829,54,-872.0000,51.0000,-4016.0000
1752795389.830,411.025,0.43895,1.74725,344641.00,2.90157,122902,54,-874.0000,42.0000,-3995.0000
1752795389.973,411.168,0.43895,1.74664,346057.00,2.88970,122868,54,-876.0000,41.0000,-4009.0000
1752795390.108,411.303,0.43773,1.74847,346685.00,2.88446,122691,54,-844.0000,59.0000,-4016.0000
1752795390.219,411.414,0.43956,1.74786,347314.00,2.87924,122731,54,-879.0000,39.0000,-4000.0000
1752795390.403,411.598,0.43956,1.74725,346523.00,2.88581,122808,54,-877.0000,37.0000,-4005.0000
1752795390.498,411.693,0.43956,1.74664,347639.00,2.87655,122737,54,-877.0000,37.0000,-4005.0000
1752795390.607,411.802,0.44017,1.74420,346847.00,2.88311,122763,54,-856.0000,49.0000,-4007.0000
1752795390.748,411.943,0.44017,1.74420,347476.00,2.87789,122809,54,-857.0000,38.0000,-4014.0000
1752795390.846,412.041,0.44139,1.74420,349531.00,2.86097,122817,54,-863.0000,39.0000,-4000.0000
1752795391.017,412.212,0.44139,1.74420,348269.00,2.87000,122881,54,-869.0000,36.0000,-4002.0000
1752795391.141,412.336,0.44139,1.74542,348269.00,2.87134,122922,54,-861.0000,42.0000,-3990.0000
1752795391.296,412.491,0.44200,1.74481,345913.00,2.89090,122714,54,-882.0000,40.0000,-4000.0000
1752795391.467,412.662,0.44200,1.74298,350328.00,2.84665,122745,54,-872.0000,47.0000,-4000.0000
1752795391.628,412.823,0.44322,1.74298,352891.00,2.85447,122721,54,-856.0000,45.0000,-4009.0000
1752795391.746,412.941,0.44261,1.74298,352891.00,2.83373,122825,54,-863.0000,50.0000,-4014.0000
1752795391.952,413.147,0.44322,1.74176,356415.00,2.84398,122839,54,-863.0000,54.0000,-4003.0000
1752795392.101,413.296,0.44200,1.74115,356415.00,2.80572,122941,54,-871.0000,53.0000,-3991.0000
1752795392.258,413.453,0.44444,1.74115,353694.00,2.82730,122951,54,-862.0000,38.0000,-4001.0000
1752795392.498,413.693,0.44444,1.74054,355471.00,2.82464,122850,54,-867.0000,43.0000,-3996.0000
1752795392.585,413.780,0.44505,1.73993,355471.00,2.81316,122854,54,-866.0000,53.0000,-3999.0000
1752795392.709,413.904,0.44628,1.73993,355304.00,2.81449,122790,54,-871.0000,49.0000,-4012.0000
1752795392.855,414.050,0.44628,1.73810,356111.00,2.80811,122827,54,-871.0000,39.0000,-4015.0000
1752795393.044,414.239,0.44505,1.74054,355943.00,2.80943,122898,54,-858.0000,63.0000,-4005.0000
1752795393.212,414.407,0.44750,1.73932,357088.00,2.80678,122960,54,-848.0000,49.0000,-4013.0000
1752795393.338,414.533,0.44750,1.73871,357088.00,2.80042,122989,54,-858.0000,36.0000,-4013.0000
1752795393.459,414.654,0.44811,1.73748,357257.00,2.79910,123017,54,-865.0000,26.0000,-4010.0000
1752795393.541,414.736,0.44750,1.73748,359829.00,2.77909,123124,54,-888.0000,25.0000,-3984.0000
1752795393.686,414.881,0.44933,1.73504,358712.00,2.78775,123091,54,-877.0000,33.0000,-4003.0000
1752795393.847,415.042,0.44872,1.73626,360987.00,2.77018,123056,54,-862.0000,53.0000,-4018.0000
1752795393.981,415.176,0.45055,1.73626,360038.00,2.77748,123043,54,-867.0000,41.0000,-3999.0000
1752795394.187,415.382,0.45055,1.73871,361330.00,2.76755,123152,54,-863.0000,50.0000,-4015.0000
1752795394.234,415.429,0.44872,1.73443,361330.00,2.76755,123224,54,-863.0000,50.0000,-4015.0000
1752795394.383,415.578,0.45177,1.73321,362108.00,2.76160,123290,54,-859.0000,44.0000,-4017.0000
1752795394.544,415.739,0.45177,1.73382,364268.00,2.74523,123364,54,-862.0000,51.0000,-3991.0000
1752795394.673,415.868,0.45116,1.73260,364442.00,2.74392,123450,54,-875.0000,52.0000,-4005.0000
1752795394.828,416.023,0.45299,1.73382,366093.00,2.73154,123370,54,-865.0000,49.0000,-4009.0000
1752795395.017,416.212,0.45299,1.73138,366396.00,2.74261,123356,54,-867.0000,34.0000,-3991.0000
1752795395.149,416.344,0.45360,1.73138,366396.00,2.72929,123385,54,-868.0000,30.0000,-4002.0000
1752795395.289,416.484,0.45482,1.73077,366746.00,2.72668,123408,54,-860.0000,51.0000,-3996.0000
1752795395.449,416.644,0.45482,1.73077,367751.00,2.71923,123460,54,-865.0000,23.0000,-3995.0000
1752795395.551,416.746,0.45482,1.73077,368229.00,2.71570,123493,54,-853.0000,33.0000,-4010.0000
1752795395.741,416.936,0.45604,1.73138,372046.00,2.68784,123533,54,-851.0000,57.0000,-4004.0000
1752795395.928,417.123,0.45788,1.73016,371085.00,2.68913,123588,54,-863.0000,44.0000,-4016.0000
1752795396.071,417.266,0.45604,1.72833,370071.00,2.69480,123528,54,-872.0000,36.0000,-3999.0000
1752795396.172,417.367,0.45543,1.72833,370071.00,2.70218,123518,54,-871.0000,31.0000,-3997.0000
1752795396.314,417.509,0.45910,1.72772,370907.00,2.69609,123508,54,-857.0000,50.0000,-4009.0000
1752795396.487,417.682,0.45788,1.72772,372403.00,2.68614,123426,54,-867.0000,44.0000,-4002.0000
1752795396.601,417.796,0.45849,1.72772,372403.00,2.68526,123518,54,-866.0000,45.0000,-4010.0000
1752795396.761,417.956,0.45971,1.72711,372102.00,2.68743,123541,54,-852.0000,40.0000,-4014.0000
1752795396.911,418.106,0.45971,1.72466,374265.00,2.67190,123575,54,-854.0000,50.0000,-4001.0000
1752795397.068,418.263,0.45971,1.72589,375772.00,2.66119,123620,54,-861.0000,44.0000,-4011.0000
1752795397.178,418.373,0.46032,1.72589,375108.00,2.66589,123574,54,-856.0000,58.0000,-4005.0000
1752795397.326,418.521,0.45971,1.72527,374626.00,2.66933,123507,54,-879.0000,36.0000,-3993.0000
1752795397.469,418.664,0.46154,1.72527,375108.00,2.66589,123478,54,-868.0000,41.0000,-4016.0000
1752795397.581,418.776,0.46093,1.72405,377466.00,2.64924,123468,54,-860.0000,46.0000,-4021.0000
1752795397.750,418.945,0.46215,1.72222,378315.00,2.65181,123502,54,-864.0000,47.0000,-3998.0000
1752795397.916,419.111,0.46215,1.72344,378983.00,2.64330,123507,54,-874.0000,51.0000,-4001.0000
1752795398.029,419.224,0.46276,1.72100,378983.00,2.63864,123551,54,-853.0000,36.0000,-4004.0000
1752795398.180,419.375,0.46337,1.72222,378983.00,2.63864,123621,54,-865.0000,55.0000,-4013.0000
1752795398.333,419.528,0.46276,1.72222,379534.00,2.63481,123632,54,-870.0000,33.0000,-4001.0000
1752795398.467,419.662,0.46459,1.71978,379350.00,2.63608,123473,54,-870.0000,33.0000,-4001.0000
1752795398.566,419.761,0.46398,1.72039,382587.00,2.61378,123486,54,-857.0000,37.0000,-4014.0000
1752795398.694,419.889,0.46459,1.72100,381729.00,2.61965,123483,54,-870.0000,34.0000,-3999.0000
1752795398.791,419.986,0.46398,1.71978,382101.00,2.61711,123464,54,-850.0000,41.0000,-4000.0000
1752795398.912,420.107,0.46642,1.71917,383446.00,2.61378,123510,54,-868.0000,36.0000,-4001.0000
1752795399.037,420.232,0.46764,1.71795,383446.00,2.60792,123545,54,-875.0000,24.0000,-4007.0000
1752795399.170,420.365,0.46703,1.71856,385546.00,2.59372,123611,54,-870.0000,41.0000,-4004.0000
1752795399.328,420.523,0.46703,1.71856,384682.00,2.60284,123671,54,-856.0000,33.0000,-4004.0000
1752795399.449,420.644,0.46703,1.71795,384682.00,2.59954,123533,54,-866.0000,47.0000,-4006.0000
1752795399.628,420.823,0.46825,1.71856,385546.00,2.59372,123493,54,-850.0000,35.0000,-4006.0000
1752795399.744,420.939,0.46947,1.71612,386901.00,2.58464,123441,54,-871.0000,38.0000,-3993.0000
1752795399.912,421.107,0.46886,1.71551,387958.00,2.58664,123468,54,-862.0000,35.0000,-4011.0000
1752795400.019,421.214,0.47131,1.71612,387958.00,2.57759,123487,54,-862.0000,35.0000,-4011.0000
1752795400.167,421.362,0.47009,1.71490,389700.00,2.56733,123542,54,-882.0000,43.0000,-4004.0000
1752795400.275,421.470,0.47131,1.71551,389700.00,2.56607,123585,54,-855.0000,46.0000,-4005.0000
1752795400.447,421.642,0.47131,1.71673,391065.00,2.55712,123602,54,-867.0000,45.0000,-3998.0000
1752795400.569,421.764,0.47192,1.71306,388039.00,2.57706,123318,54,-858.0000,39.0000,-4001.0000
1752795400.673,421.868,0.47314,1.71306,388039.00,2.57706,123326,54,-858.0000,42.0000,-4003.0000
1752795400.845,422.040,0.47253,1.71306,393891.00,2.53877,123344,54,-865.0000,45.0000,-4004.0000
1752795400.991,422.186,0.47253,1.71062,393205.00,2.54320,123349,54,-867.0000,63.0000,-3997.0000
1752795401.170,422.365,0.47375,1.71123,393592.00,2.52994,123410,54,-874.0000,33.0000,-4005.0000
1752795401.249,422.444,0.47436,1.71001,393592.00,2.54070,123441,54,-867.0000,37.0000,-3992.0000
1752795401.347,422.542,0.47558,1.71062,395358.00,2.52935,123458,54,-880.0000,36.0000,-4011.0000
1752795401.460,422.655,0.47558,1.71001,396243.00,2.52370,123249,54,-855.0000,42.0000,-4001.0000
1752795401.624,422.819,0.47619,1.71001,397130.00,2.51807,123175,54,-858.0000,30.0000,-4005.0000
1752795401.726,422.921,0.47558,1.70818,397130.00,2.51807,123158,54,-875.0000,31.0000,-3998.0000
1752795401.827,423.022,0.47680,1.70879,398316.00,2.51056,123178,54,-871.0000,42.0000,-4009.0000
1752795401.951,423.146,0.47863,1.70757,399603.00,2.50248,123169,54,-875.0000,23.0000,-3992.0000
1752795402.076,423.271,0.47802,1.70818,398711.00,2.50808,123226,54,-852.0000,52.0000,-4006.0000
1752795402.189,423.384,0.47802,1.70757,401391.00,2.49133,123246,54,-858.0000,45.0000,-3992.0000
1752795402.328,423.523,0.47741,1.70879,400496.00,2.49690,123321,54,-867.0000,40.0000,-4005.0000
1752795402.484,423.679,0.47802,1.70574,401391.00,2.49133,123081,54,-862.0000,27.0000,-4004.0000
1752795402.606,423.801,0.47924,1.70696,402585.00,2.48394,123036,54,-868.0000,45.0000,-3988.0000
1752795402.742,423.937,0.47924,1.70513,401591.00,2.49009,122947,54,-868.0000,38.0000,-3988.0000
1752795402.932,424.127,0.47985,1.70574,404586.00,2.47718,123007,54,-861.0000,38.0000,-4007.0000
1752795403.073,424.268,0.47985,1.70452,404586.00,2.47166,123009,54,-866.0000,37.0000,-4005.0000
1752795403.191,424.386,0.48046,1.70452,404586.00,2.47166,123087,54,-866.0000,37.0000,-4005.0000
1752795403.325,424.520,0.48230,1.70452,406393.00,2.47043,123142,54,-854.0000,51.0000,-4003.0000
1752795403.469,424.664,0.48230,1.70330,406393.00,2.46067,123225,54,-880.0000,55.0000,-4003.0000
1752795403.590,424.785,0.48168,1.70330,408004.00,2.45096,122983,54,-860.0000,44.0000,-4000.0000
1752795403.733,424.928,0.48230,1.70269,407707.00,2.45274,122975,54,-845.0000,50.0000,-3999.0000
1752795403.927,425.122,0.48291,1.70085,409824.00,2.44007,122922,54,-872.0000,59.0000,-4005.0000
1752795404.053,425.248,0.48352,1.70208,409824.00,2.44007,122957,54,-861.0000,35.0000,-4008.0000
1752795404.271,425.466,0.48413,1.70085,409118.00,2.44428,122979,54,-867.0000,46.0000,-4003.0000
1752795404.397,425.592,0.48474,1.70208,409824.00,2.44007,123028,54,-866.0000,35.0000,-4001.0000
1752795404.535,425.730,0.48413,1.70085,410235.00,2.43762,123053,54,-859.0000,45.0000,-4003.0000
1752795404.698,425.893,0.48474,1.70085,410235.00,2.43762,123113,54,-870.0000,36.0000,-3991.0000
1752795404.868,426.063,0.48474,1.70024,411859.00,2.42801,122998,54,-873.0000,42.0000,-4011.0000
1752795405.050,426.245,0.48413,1.69963,411150.00,2.41136,122878,54,-857.0000,45.0000,-4016.0000
1752795405.184,426.379,0.48535,1.70085,411150.00,2.43220,122817,54,-877.0000,31.0000,-4005.0000
1752795405.320,426.515,0.48596,1.70147,412984.00,2.42140,122801,54,-860.0000,33.0000,-4004.0000
1752795405.408,426.603,0.48413,1.69902,412984.00,2.42140,122829,54,-867.0000,37.0000,-3997.0000
1752795405.537,426.732,0.48596,1.69902,412984.00,2.42731,122842,54,-874.0000,42.0000,-3992.0000
1752795405.691,426.886,0.48779,1.69841,412984.00,2.42140,122940,54,-864.0000,55.0000,-3999.0000
1752795405.844,427.039,0.48657,1.69658,414321.00,2.41358,122949,54,-865.0000,53.0000,-3999.0000
1752795405.950,427.145,0.48718,1.69658,414826.00,2.41065,122912,54,-869.0000,41.0000,-3991.0000
1752795406.122,427.317,0.48840,1.69658,416969.00,2.40189,122720,54,-867.0000,37.0000,-4009.0000
1752795406.282,427.477,0.48779,1.69780,416675.00,2.39826,122698,54,-867.0000,29.0000,-4001.0000
1752795406.440,427.635,0.48962,1.69719,416675.00,2.39995,122664,54,-871.0000,40.0000,-4002.0000
1752795406.581,427.776,0.48901,1.69536,417391.00,2.39583,122706,54,-865.0000,39.0000,-4016.0000
1752795406.687,427.882,0.48779,1.69353,417391.00,2.39583,122747,54,-858.0000,22.0000,-4006.0000
1752795406.836,428.031,0.49023,1.69658,420476.00,2.37825,122811,54,-866.0000,38.0000,-4006.0000
1752795407.031,428.226,0.49023,1.69475,419462.00,2.38400,122916,54,-867.0000,41.0000,-4006.0000
1752795407.091,428.286,0.49023,1.69353,419462.00,2.38400,122954,54,-867.0000,41.0000,-4006.0000
1752795407.219,428.414,0.49023,1.69414,420903.00,2.37584,122902,54,-855.0000,52.0000,-4009.0000
1752795407.431,428.626,0.49206,1.69475,419888.00,2.37464,122866,54,-853.0000,32.0000,-4004.0000
1752795407.556,428.751,0.49145,1.69292,419888.00,2.38159,122876,54,-869.0000,37.0000,-4006.0000
1752795407.677,428.872,0.49328,1.69231,422052.00,2.36937,122965,54,-869.0000,37.0000,-4006.0000
1752795407.845,429.040,0.49206,1.69170,423421.00,2.36171,123019,54,-866.0000,40.0000,-4006.0000
1752795408.010,429.205,0.49389,1.69170,424656.00,2.35485,123094,54,-853.0000,52.0000,-3999.0000
1752795408.189,429.384,0.49389,1.68987,424069.00,2.35810,123020,54,-867.0000,47.0000,-3999.0000
1752795408.393,429.588,0.49328,1.69109,429682.00,2.32730,122999,54,-863.0000,27.0000,-3989.0000
1752795408.525,429.720,0.49451,1.69048,425089.00,2.35245,122996,54,-871.0000,37.0000,-3998.0000
1752795408.714,429.909,0.49512,1.69109,426251.00,2.34442,123010,54,-874.0000,45.0000,-4005.0000
1752795408.852,430.047,0.49573,1.68926,426251.00,2.34603,123060,54,-859.0000,49.0000,-4009.0000
1752795408.998,430.193,0.49634,1.68803,429098.00,2.33047,123102,54,-859.0000,30.0000,-4009.0000
1752795409.149,430.344,0.49451,1.68864,426687.00,2.34364,123154,54,-873.0000,38.0000,-4005.0000
1752795409.301,430.496,0.49756,1.68803,429098.00,2.33047,123185,54,-860.0000,50.0000,-4011.0000
1752795409.454,430.649,0.49817,1.68803,430051.00,2.32530,123059,54,-867.0000,31.0000,-4006.0000
1752795409.643,430.838,0.49756,1.68803,431227.00,2.32253,123034,54,-883.0000,27.0000,-4007.0000
1752795409.758,430.953,0.49756,1.68559,431227.00,2.31896,123020,54,-858.0000,36.0000,-3997.0000
1752795409.880,431.075,0.49817,1.68376,431006.00,2.32015,123034,54,-857.0000,39.0000,-3999.0000
1752795409.995,431.190,0.49878,1.68742,431449.00,2.31777,123059,54,-871.0000,35.0000,-4000.0000
1752795410.132,431.327,0.49878,1.68498,435136.00,2.30477,123052,54,-865.0000,49.0000,-4006.0000
1752795410.257,431.452,0.50000,1.68437,434106.00,2.29813,123128,54,-859.0000,46.0000,-4015.0000
1752795410.332,431.527,0.50183,1.68376,434106.00,2.30358,123165,54,-869.0000,47.0000,-3992.0000
1752795410.459,431.654,0.50122,1.68437,436776.00,2.28950,123054,54,-867.0000,42.0000,-3987.0000
1752795410.598,431.793,0.50061,1.68437,437067.00,2.28798,123013,54,-869.0000,43.0000,-4009.0000
1752795410.753,431.948,0.50122,1.68254,435585.00,2.29576,122990,54,-861.0000,44.0000,-4001.0000
1752795410.859,432.054,0.50122,1.68315,437519.00,2.28561,123002,54,-853.0000,41.0000,-4000.0000
1752795410.948,432.143,0.50244,1.68254,437293.00,2.28679,123032,54,-853.0000,41.0000,-4000.0000
1752795411.122,432.317,0.50122,1.68193,438489.00,2.28056,123030,54,-863.0000,50.0000,-4027.0000
1752795411.275,432.470,0.50244,1.68132,438716.00,2.27938,123107,54,-863.0000,20.0000,-3995.0000
1752795411.465,432.660,0.50305,1.68498,440725.00,2.26899,123164,54,-874.0000,34.0000,-3987.0000
1752795411.652,432.847,0.50366,1.68193,440892.00,2.26663,123204,54,-867.0000,30.0000,-4001.0000
1752795411.781,432.976,0.50427,1.68010,440892.00,2.26813,123217,54,-870.0000,31.0000,-3985.0000
1752795411.950,433.145,0.50427,1.68071,442159.00,2.26163,123066,54,-872.0000,37.0000,-4008.0000
1752795412.117,433.312,0.50488,1.68010,441411.00,2.26546,123105,54,-866.0000,36.0000,-4018.0000
1752795412.298,433.493,0.50549,1.67705,443659.00,2.25663,123118,54,-853.0000,50.0000,-4005.0000
1752795412.415,433.610,0.50549,1.67827,444120.00,2.25398,123154,54,-862.0000,44.0000,-4009.0000
1752795412.585,433.780,0.50549,1.67827,446322.00,2.25164,123151,54,-868.0000,47.0000,-4017.0000
1752795412.710,433.905,0.50672,1.67521,446322.00,2.24053,123228,54,-859.0000,37.0000,-4017.0000
1752795412.824,434.019,0.50794,1.67766,448589.00,2.22921,123290,54,-859.0000,37.0000,-4017.0000
1752795412.993,434.188,0.50794,1.67705,447365.00,2.23531,123302,54,-867.0000,35.0000,-4005.0000
1752795413.126,434.321,0.50733,1.67766,447310.00,2.23558,123081,54,-861.0000,44.0000,-4005.0000
1752795413.251,434.446,0.50733,1.67705,450575.00,2.23181,123117,54,-867.0000,43.0000,-4004.0000
1752795413.369,434.564,0.50794,1.67643,450575.00,2.21938,123108,54,-871.0000,36.0000,-3995.0000
1752795413.525,434.720,0.50916,1.67521,449816.00,2.22313,123173,54,-862.0000,48.0000,-4009.0000
1752795413.667,434.862,0.50916,1.67460,450052.00,2.22196,123170,54,-873.0000,47.0000,-4005.0000
1752795413.861,435.056,0.50977,1.67460,448770.00,2.22831,123200,54,-861.0000,37.0000,-4011.0000
1752795414.045,435.240,0.51038,1.67338,452808.00,2.21822,123296,54,-867.0000,38.0000,-3996.0000
1752795414.189,435.384,0.51160,1.67705,452808.00,2.20844,123259,54,-872.0000,31.0000,-4006.0000
1752795414.285,435.480,0.51160,1.67216,453522.00,2.20496,123099,54,-872.0000,47.0000,-4010.0000
1752795414.468,435.663,0.51282,1.67216,452758.00,2.19870,123024,54,-873.0000,34.0000,-3994.0000
1752795414.595,435.790,0.51282,1.67277,452758.00,2.20868,123030,54,-852.0000,43.0000,-4003.0000
1752795414.782,435.977,0.51282,1.67094,454526.00,2.20009,123036,54,-864.0000,35.0000,-4020.0000
1752795414.940,436.135,0.51221,1.67155,455292.00,2.19639,123081,54,-862.0000,36.0000,-4007.0000
1752795415.107,436.302,0.51465,1.66911,454765.00,2.19893,123124,54,-850.0000,49.0000,-4015.0000
1752795415.258,436.453,0.51465,1.67033,456299.00,2.19154,123181,54,-865.0000,53.0000,-4017.0000
1752795415.411,436.606,0.51465,1.66972,457308.00,2.18671,123189,54,-856.0000,54.0000,-4010.0000
1752795415.588,436.783,0.51465,1.66911,459619.00,2.17571,123001,54,-859.0000,55.0000,-4009.0000
1752795415.749,436.944,0.51709,1.67033,459090.00,2.17822,122964,54,-849.0000,41.0000,-3991.0000
1752795415.879,437.074,0.51648,1.66911,460349.00,2.17226,122921,54,-876.0000,26.0000,-3994.0000
1752795416.029,437.224,0.51587,1.66667,460593.00,2.17111,122936,54,-872.0000,35.0000,-3994.0000
1752795416.166,437.361,0.51648,1.66789,463448.00,2.15774,122939,54,-861.0000,50.0000,-4024.0000
1752795416.337,437.532,0.51709,1.66850,461367.00,2.16747,122995,54,-854.0000,47.0000,-4018.0000
1752795416.467,437.662,0.51648,1.66789,465497.00,2.14824,123066,54,-864.0000,27.0000,-4010.0000
1752795416.567,437.762,0.51832,1.66667,462878.00,2.16039,123153,54,-854.0000,42.0000,-4011.0000
1752795416.709,437.904,0.51770,1.66545,466028.00,2.14579,123031,54,-869.0000,50.0000,-4000.0000
1752795416.895,438.090,0.51893,1.66545,468586.00,2.14367,122954,54,-860.0000,46.0000,-4008.0000
1752795417.024,438.219,0.51954,1.66422,468586.00,2.13408,122975,54,-864.0000,28.0000,-3977.0000
1752795417.142,438.337,0.51954,1.66361,467520.00,2.13895,122982,54,-855.0000,39.0000,-4007.0000
1752795417.328,438.523,0.52015,1.66422,468303.00,2.13294,122952,54,-863.0000,51.0000,-3992.0000
1752795417.433,438.628,0.52076,1.66422,468303.00,2.13537,123045,54,-865.0000,44.0000,-3981.0000
1752795417.543,438.738,0.52137,1.66239,469871.00,2.12824,123074,54,-873.0000,48.0000,-3991.0000
1752795417.702,438.897,0.52137,1.66300,471161.00,2.12242,123126,54,-863.0000,37.0000,-3997.0000
1752795417.879,439.074,0.52198,1.66178,470626.00,2.11661,122963,54,-854.0000,45.0000,-3996.0000
1752795418.006,439.201,0.52320,1.66239,470626.00,2.12483,122970,54,-870.0000,29.0000,-4005.0000
1752795418.174,439.369,0.52442,1.66056,472707.00,2.11547,122935,54,-850.0000,41.0000,-4005.0000
1752795418.309,439.504,0.52320,1.66056,474798.00,2.10616,122871,54,-863.0000,40.0000,-4009.0000
1752795418.449,439.644,0.52381,1.65995,474288.00,2.10842,122908,54,-864.0000,25.0000,-4006.0000
1752795418.570,439.765,0.52442,1.66117,473497.00,2.11194,122979,54,-871.0000,34.0000,-3994.0000
1752795418.657,439.852,0.52442,1.65995,474006.00,2.10968,123025,54,-864.0000,27.0000,-4006.0000
1752795418.793,439.988,0.52503,1.65934,475847.00,2.10151,123075,54,-878.0000,28.0000,-4008.0000
1752795418.988,440.183,0.52564,1.65934,477179.00,2.09565,122859,54,-852.0000,49.0000,-4012.0000
1752795419.125,440.320,0.52686,1.65934,478748.00,2.08878,122769,54,-862.0000,48.0000,-4019.0000
1752795419.262,440.457,0.52747,1.65751,477412.00,2.09462,122693,54,-856.0000,46.0000,-4009.0000
1752795419.457,440.652,0.52686,1.65690,480605.00,2.08530,122706,54,-865.0000,46.0000,-3999.0000
1752795419.575,440.770,0.52808,1.65690,480605.00,2.08071,122731,54,-861.0000,37.0000,-4002.0000
1752795419.707,440.902,0.52747,1.65568,481125.00,2.07846,122722,54,-855.0000,20.0000,-3991.0000
1752795419.838,441.033,0.52808,1.65568,482467.00,2.07268,122787,54,-851.0000,57.0000,-4008.0000
1752795419.989,441.184,0.53053,1.65507,482728.00,2.07156,122842,54,-858.0000,37.0000,-4006.0000
1752795420.136,441.331,0.52869,1.65568,484056.00,2.06588,122644,54,-866.0000,32.0000,-3995.0000
1752795420.248,441.443,0.53053,1.65507,484581.00,2.06363,122523,54,-852.0000,30.0000,-4012.0000
1752795420.354,441.549,0.52930,1.65385,487003.00,2.06363,122449,54,-871.0000,26.0000,-3983.0000
1752795420.474,441.669,0.52991,1.65324,487003.00,2.05337,122428,54,-859.0000,29.0000,-3997.0000
1752795420.601,441.796,0.52991,1.65446,486195.00,2.05678,122450,54,-865.0000,39.0000,-4007.0000
1752795420.719,441.914,0.53053,1.65079,487003.00,2.05337,122515,54,-861.0000,40.0000,-4011.0000
1752795420.881,442.076,0.53114,1.65263,487003.00,2.05337,122506,54,-860.0000,37.0000,-4000.0000
1752795421.042,442.237,0.52991,1.65324,488344.00,2.04774,122594,54,-858.0000,40.0000,-4007.0000
1752795421.190,442.385,0.53297,1.65201,489689.00,2.04211,122643,54,-866.0000,36.0000,-4003.0000
1752795421.344,442.539,0.53297,1.65263,489689.00,2.04211,122639,54,-859.0000,47.0000,-3997.0000
1752795421.490,442.685,0.53358,1.65201,489689.00,2.04211,122413,54,-879.0000,32.0000,-3989.0000
1752795421.577,442.772,0.53358,1.65018,491584.00,2.03424,122445,54,-865.0000,36.0000,-4010.0000
1752795421.650,442.845,0.53541,1.65018,492400.00,2.03087,122359,54,-865.0000,36.0000,-4010.0000
1752795421.788,442.983,0.53541,1.64713,493209.00,2.02754,122434,54,-865.0000,43.0000,-4006.0000
1752795421.923,443.118,0.53541,1.64896,497309.00,2.01082,122481,54,-849.0000,40.0000,-4003.0000
1752795422.060,443.255,0.53480,1.64774,495938.00,2.01638,122550,54,-845.0000,40.0000,-4003.0000
1752795422.201,443.396,0.53663,1.64774,496215.00,2.01526,122614,54,-862.0000,42.0000,-3994.0000
1752795422.377,443.572,0.53663,1.64774,497856.00,2.00861,122404,54,-870.0000,36.0000,-3991.0000
1752795422.547,443.742,0.53724,1.64774,497032.00,2.00861,122311,54,-867.0000,44.0000,-4004.0000
1752795422.721,443.916,0.53724,1.64896,498404.00,2.01194,122264,54,-867.0000,29.0000,-4002.0000
1752795422.848,444.043,0.53846,1.64713,498404.00,2.00640,122258,54,-842.0000,38.0000,-3999.0000
1752795423.007,444.202,0.53907,1.64713,499229.00,2.00309,122288,54,-859.0000,42.0000,-4009.0000
1752795423.162,444.357,0.53968,1.64469,498953.00,2.00420,122302,54,-851.0000,46.0000,-4004.0000
1752795423.252,444.447,0.53968,1.64164,502541.00,1.98989,122378,54,-851.0000,46.0000,-4004.0000
1752795423.407,444.602,0.53907,1.64774,506703.00,1.97354,122451,54,-865.0000,37.0000,-4007.0000
1752795423.555,444.750,0.54029,1.64530,498127.00,2.00752,122356,54,-850.0000,37.0000,-4006.0000
1752795423.766,444.961,0.53968,1.64408,505595.00,1.97787,122079,54,-871.0000,36.0000,-4004.0000
1752795423.862,445.057,0.54090,1.64225,505595.00,1.97787,121980,54,-868.0000,43.0000,-3996.0000
1752795424.010,445.205,0.54151,1.64347,506430.00,1.97461,121885,54,-858.0000,26.0000,-4002.0000
1752795424.149,445.344,0.54212,1.64164,505041.00,1.98004,121899,54,-868.0000,41.0000,-4008.0000
1752795424.336,445.531,0.54274,1.64164,507829.00,1.96917,121956,54,-860.0000,39.0000,-3995.0000
1752795424.448,445.643,0.54396,1.64103,508111.00,1.96807,122016,54,-873.0000,36.0000,-4002.0000
1752795424.560,445.755,0.54335,1.64103,510072.00,1.96483,122066,54,-858.0000,41.0000,-4012.0000
1752795424.726,445.921,0.54335,1.64042,510913.00,1.96051,122089,54,-852.0000,37.0000,-4011.0000
1752795424.877,446.072,0.54457,1.63980,510913.00,1.95728,121722,54,-856.0000,19.0000,-3997.0000
1752795425.037,446.232,0.54396,1.63858,512611.00,1.95079,121679,54,-870.0000,37.0000,-3993.0000
1752795425.198,446.393,0.54457,1.63858,512611.00,1.95079,121634,54,-870.0000,39.0000,-3990.0000
1752795425.353,446.548,0.54518,1.63858,514301.00,1.94438,121706,54,-869.0000,51.0000,-3997.0000
1752795425.512,446.707,0.54579,1.63858,513456.00,1.94759,121843,54,-859.0000,50.0000,-4012.0000
1752795425.648,446.843,0.54701,1.63736,516013.00,1.93793,121812,54,-858.0000,49.0000,-4006.0000
1752795425.847,447.042,0.54701,1.63736,515453.00,1.94004,121883,54,-872.0000,45.0000,-4004.0000
1752795425.958,447.153,0.54823,1.63675,515453.00,1.94004,122041,54,-848.0000,46.0000,-4000.0000
1752795426.106,447.301,0.54823,1.63614,518003.00,1.93049,121730,54,-857.0000,34.0000,-3992.0000
1752795426.250,447.445,0.54823,1.63553,520000.00,1.92308,121708,54,-860.0000,35.0000,-4013.0000
1752795426.391,447.586,0.54945,1.63492,518003.00,1.93049,121672,54,-869.0000,40.0000,-3991.0000
1752795426.566,447.761,0.54884,1.63492,520585.00,1.92092,121725,54,-868.0000,31.0000,-3992.0000
1752795426.711,447.906,0.55006,1.63370,520585.00,1.92092,121751,54,-851.0000,49.0000,-4010.0000
1752795426.832,448.027,0.54945,1.63309,522591.00,1.91354,121850,54,-864.0000,43.0000,-4001.0000
1752795426.969,448.164,0.55067,1.63309,523745.00,1.90933,121924,54,-861.0000,37.0000,-3997.0000
1752795427.101,448.296,0.55189,1.63309,524336.00,1.91354,122022,54,-866.0000,39.0000,-4003.0000
1752795427.235,448.430,0.55067,1.63248,524336.00,1.90717,121658,54,-858.0000,30.0000,-4006.0000
1752795427.386,448.581,0.55250,1.63065,525197.00,1.90404,121619,54,-863.0000,45.0000,-4004.0000
1752795427.561,448.756,0.55311,1.63126,527818.00,1.89459,121540,54,-851.0000,45.0000,-4002.0000
1752795427.705,448.900,0.55250,1.63065,527787.00,1.89470,121530,54,-867.0000,34.0000,-4009.0000
1752795427.783,448.978,0.55495,1.63126,528086.00,1.89363,121584,54,-861.0000,41.0000,-4004.0000
1752795427.932,449.127,0.55495,1.62943,528417.00,1.89244,121709,54,-842.0000,36.0000,-3993.0000
1752795428.059,449.254,0.55678,1.62943,531022.00,1.88316,121800,54,-842.0000,36.0000,-3993.0000
1752795428.241,449.436,0.55495,1.62943,531929.00,1.87995,121872,54,-873.0000,49.0000,-3992.0000
1752795428.399,449.594,0.55495,1.62882,532498.00,1.87794,121864,54,-854.0000,35.0000,-3997.0000
1752795428.558,449.753,0.55617,1.62759,534814.00,1.86981,121510,54,-848.0000,46.0000,-4009.0000
1752795428.659,449.854,0.55617,1.62698,531324.00,1.88209,121416,54,-849.0000,38.0000,-4010.0000
1752795428.763,449.958,0.55617,1.62821,535119.00,1.86874,121375,54,-860.0000,43.0000,-4000.0000
1752795428.892,450.087,0.55739,1.62698,535730.00,1.87073,121375,54,-863.0000,36.0000,-4008.0000
1752795429.025,450.220,0.55739,1.62576,535730.00,1.86661,121457,54,-867.0000,45.0000,-3993.0000
1752795429.164,450.359,0.55800,1.62515,535159.00,1.86860,121575,54,-864.0000,48.0000,-4007.0000
1752795429.287,450.482,0.55678,1.62454,539025.00,1.85520,121726,54,-866.0000,55.0000,-4006.0000
1752795429.444,450.639,0.55922,1.62515,538936.00,1.85551,121780,54,-862.0000,46.0000,-3995.0000
1752795429.576,450.771,0.55861,1.62637,539862.00,1.85232,121693,54,-864.0000,43.0000,-4002.0000
1752795429.750,450.945,0.55861,1.62271,540481.00,1.85232,121419,54,-854.0000,36.0000,-4006.0000
1752795429.824,451.019,0.56044,1.62454,540481.00,1.85020,121339,54,-861.0000,40.0000,-4008.0000
1752795429.955,451.150,0.56105,1.62332,540791.00,1.84914,121322,54,-863.0000,48.0000,-4014.0000
1752795430.101,451.296,0.56044,1.62454,542873.00,1.84205,121396,54,-855.0000,40.0000,-4007.0000
1752795430.207,451.402,0.55983,1.62393,544335.00,1.83710,121478,54,-856.0000,29.0000,-4005.0000
1752795430.360,451.555,0.56227,1.62271,545538.00,1.83305,121577,54,-866.0000,38.0000,-4009.0000
1752795430.490,451.685,0.56105,1.62149,544700.00,1.83587,121881,54,-855.0000,32.0000,-4013.0000
1752795430.675,451.870,0.56349,1.62210,547374.00,1.82690,121578,54,-869.0000,34.0000,-3985.0000
1752795430.797,451.992,0.56349,1.62088,547058.00,1.82796,121495,54,-872.0000,39.0000,-3998.0000
1752795430.955,452.150,0.56227,1.62027,550954.00,1.81503,121430,54,-865.0000,38.0000,-4004.0000
1752795431.143,452.338,0.56410,1.61966,550375.00,1.82690,121493,54,-878.0000,59.0000,-4011.0000
1752795431.272,452.467,0.56410,1.62027,550375.00,1.81694,121611,54,-872.0000,37.0000,-4005.0000
1752795431.403,452.598,0.56532,1.61905,548901.00,1.82182,121804,54,-860.0000,31.0000,-4011.0000
1752795431.560,452.755,0.56532,1.61844,551332.00,1.81379,121856,54,-872.0000,34.0000,-3991.0000
1752795431.784,452.979,0.56593,1.61783,553774.00,1.80579,121996,54,-859.0000,52.0000,-4009.0000
1752795431.927,453.122,0.56716,1.61844,553193.00,1.80579,121651,54,-860.0000,49.0000,-4009.0000
1752795432.028,453.223,0.56532,1.61661,553193.00,1.80768,121664,54,-852.0000,32.0000,-4005.0000
1752795432.175,453.370,0.56654,1.61661,554096.00,1.80474,121598,54,-851.0000,50.0000,-4015.0000
1752795432.302,453.497,0.56899,1.61722,555000.00,1.80180,121640,54,-864.0000,48.0000,-3996.0000
1752795432.411,453.606,0.56716,1.61538,555969.00,1.79866,121640,54,-856.0000,35.0000,-4008.0000
1752795432.615,453.810,0.56716,1.61538,557717.00,1.79302,121957,54,-858.0000,36.0000,-3999.0000
1752795432.703,453.898,0.56960,1.61600,556228.00,1.79782,122096,54,-866.0000,48.0000,-4004.0000
1752795432.840,454.035,0.57021,1.61477,559929.00,1.78594,121683,54,-851.0000,36.0000,-4013.0000
1752795433.004,454.199,0.56960,1.61355,559019.00,1.78885,121730,54,-857.0000,39.0000,-4014.0000
1752795433.110,454.305,0.57021,1.61355,561498.00,1.78095,121485,54,-853.0000,46.0000,-4000.0000
1752795433.265,454.460,0.57143,1.61416,562083.00,1.77910,121512,54,-867.0000,46.0000,-4015.0000
1752795433.435,454.630,0.57204,1.61294,562997.00,1.77621,121615,54,-860.0000,49.0000,-4005.0000
1752795433.608,454.803,0.57204,1.61233,562412.00,1.76837,121746,54,-839.0000,49.0000,-4007.0000
1752795433.714,454.909,0.57265,1.61172,562412.00,1.77806,121800,54,-869.0000,33.0000,-3997.0000
1752795433.876,455.071,0.57265,1.60867,564906.00,1.77021,121925,54,-861.0000,30.0000,-3998.0000
1752795434.040,455.235,0.57265,1.60806,567078.00,1.76343,121801,54,-852.0000,49.0000,-4026.0000
1752795434.211,455.406,0.57326,1.61111,568669.00,1.76056,121491,54,-860.0000,38.0000,-4007.0000
1752795434.340,455.535,0.57204,1.61050,568669.00,1.75849,121461,54,-869.0000,36.0000,-4003.0000
1752795434.494,455.689,0.57387,1.60928,568669.00,1.75849,121537,54,-865.0000,43.0000,-3993.0000
1752795434.635,455.830,0.57387,1.60867,573136.00,1.74479,121663,54,-860.0000,33.0000,-3997.0000
1752795434.750,455.945,0.57509,1.60806,571445.00,1.74995,121812,54,-860.0000,33.0000,-3997.0000
1752795434.912,456.107,0.57570,1.60806,573049.00,1.74505,121928,54,-852.0000,29.0000,-4013.0000
1752795435.103,456.298,0.57631,1.60867,574319.00,1.74016,122025,54,-862.0000,35.0000,-4010.0000
1752795435.223,456.418,0.57631,1.60745,574319.00,1.74119,122116,54,-855.0000,43.0000,-4004.0000
1752795435.346,456.541,0.57692,1.60684,574659.00,1.74016,121664,54,-855.0000,43.0000,-4016.0000
1752795435.489,456.684,0.57753,1.60745,575933.00,1.73631,121669,54,-856.0000,31.0000,-4010.0000
1752795435.627,456.822,0.57814,1.60684,575340.00,1.73810,121642,54,-856.0000,37.0000,-3997.0000
1752795435.801,456.996,0.57814,1.60440,576617.00,1.73425,121746,42,-863.0000,38.0000,-3996.0000
1752795435.995,457.190,0.57814,1.60501,578147.00,1.72939,121801,42,-852.0000,38.0000,-4007.0000
1752795436.140,457.335,0.57814,1.60623,578147.00,1.72966,121944,42,-857.0000,43.0000,-4009.0000
1752795436.306,457.501,0.57937,1.60379,578834.00,1.72658,121992,42,-855.0000,56.0000,-3997.0000
1752795436.421,457.616,0.57937,1.60440,578834.00,1.72761,122098,42,-844.0000,39.0000,-4008.0000
1752795436.585,457.780,0.57937,1.60501,581060.00,1.72099,121981,42,-851.0000,41.0000,-4001.0000
1752795436.748,457.943,0.57937,1.60440,580119.00,1.72378,121702,42,-856.0000,48.0000,-4018.0000
1752795436.967,458.162,0.57998,1.60440,581060.00,1.72099,121640,42,-860.0000,44.0000,-4006.0000
1752795437.087,458.282,0.57998,1.60440,582696.00,1.71616,121654,42,-859.0000,26.0000,-4008.0000
1752795437.252,458.447,0.58120,1.60195,583641.00,1.71338,121693,42,-868.0000,43.0000,-4002.0000
1752795437.409,458.604,0.58059,1.60195,584937.00,1.70959,121981,42,-862.0000,52.0000,-4007.0000
1752795437.595,458.790,0.58242,1.60134,585885.00,1.70202,121863,42,-858.0000,32.0000,-4002.0000
1752795437.713,458.908,0.58181,1.60134,585885.00,1.70682,121978,42,-881.0000,41.0000,-3989.0000
1752795437.841,459.036,0.58242,1.60134,584937.00,1.70959,121699,42,-870.0000,48.0000,-3991.0000
1752795438.006,459.201,0.58303,1.59951,585637.00,1.70754,121471,42,-852.0000,37.0000,-4003.0000
1752795438.178,459.373,0.58303,1.60012,587290.00,1.70274,121375,42,-858.0000,42.0000,-4001.0000
1752795438.342,459.537,0.58364,1.59707,590504.00,1.69347,121437,42,-859.0000,27.0000,-3988.0000
1752795438.532,459.727,0.58486,1.60012,592775.00,1.68084,121432,42,-870.0000,35.0000,-4006.0000
1752795438.690,459.885,0.58486,1.59707,593132.00,1.68596,121613,42,-848.0000,45.0000,-4009.0000
1752795438.810,460.005,0.58486,1.59951,593132.00,1.68596,121683,42,-852.0000,31.0000,-4014.0000
1752795438.927,460.122,0.58425,1.60012,588489.00,1.69927,121791,42,-852.0000,31.0000,-4014.0000
1752795439.121,460.316,0.58547,1.59829,592663.00,1.68730,121581,42,-851.0000,39.0000,-4017.0000
1752795439.241,460.436,0.58547,1.59707,594092.00,1.68324,121213,42,-864.0000,33.0000,-3998.0000
1752795439.394,460.589,0.58364,1.59951,595657.00,1.67882,121172,42,-861.0000,32.0000,-4008.0000
1752795439.532,460.727,0.58303,1.60256,591105.00,1.69174,121185,42,-869.0000,27.0000,-4001.0000
1752795439.674,460.869,0.58059,1.60256,585988.00,1.70652,121318,42,-857.0000,40.0000,-4004.0000
1752795439.840,461.035,0.58181,1.60195,584587.00,1.71061,121415,42,-873.0000,38.0000,-3988.0000
1752795439.973,461.168,0.58181,1.60195,587185.00,1.70304,121582,42,-851.0000,34.0000,-4006.0000
1752795440.091,461.286,0.58181,1.60195,586235.00,1.70580,121705,42,-858.0000,58.0000,-4001.0000
1752795440.213,461.408,0.58242,1.60073,588489.00,1.70580,121765,42,-870.0000,51.0000,-4013.0000
1752795440.329,461.524,0.58303,1.60195,588489.00,1.69927,121728,42,-852.0000,41.0000,-4002.0000
1752795440.461,461.656,0.58364,1.60073,586938.00,1.70376,121377,42,-852.0000,41.0000,-4002.0000
1752795440.617,461.812,0.58364,1.60012,589195.00,1.69723,121327,42,-868.0000,37.0000,-4000.0000
1752795440.758,461.953,0.58486,1.59890,589795.00,1.69550,121384,42,-863.0000,25.0000,-4001.0000
1752795440.905,462.100,0.58547,1.59890,592775.00,1.68698,121496,42,-859.0000,31.0000,-3994.0000
1752795441.052,462.247,0.58486,1.59951,593132.00,1.68596,121715,42,-859.0000,45.0000,-4010.0000
1752795441.227,462.422,0.58364,1.59768,593979.00,1.68971,121835,42,-859.0000,30.0000,-4004.0000
1752795441.370,462.565,0.58730,1.59768,595413.00,1.68356,121968,42,-865.0000,44.0000,-4006.0000
1752795441.487,462.682,0.58608,1.59646,595413.00,1.67951,121489,42,-854.0000,36.0000,-4010.0000
1752795441.589,462.784,0.58791,1.59646,598669.00,1.67037,121531,42,-860.0000,40.0000,-3999.0000
1752795441.679,462.874,0.58730,1.59585,598426.00,1.67105,121596,42,-861.0000,50.0000,-4002.0000
1752795441.753,462.948,0.58974,1.59585,599031.00,1.66936,121695,42,-855.0000,50.0000,-4004.0000
1752795441.841,463.036,0.58852,1.59646,600485.00,1.66532,121824,42,-848.0000,42.0000,-4008.0000
1752795441.960,463.155,0.58852,1.59524,598788.00,1.67004,121939,42,-866.0000,32.0000,-3999.0000
1752795442.138,463.333,0.58730,1.59463,601699.00,1.66196,121659,42,-862.0000,29.0000,-3997.0000
1752795442.307,463.502,0.58791,1.59768,602671.00,1.65928,121537,42,-876.0000,40.0000,-3998.0000
1752795442.426,463.621,0.58913,1.59524,602430.00,1.65994,121500,42,-876.0000,40.0000,-3998.0000
1752795442.579,463.774,0.58913,1.59341,601092.00,1.66364,121474,42,-857.0000,40.0000,-3998.0000
1752795442.751,463.946,0.58974,1.59402,602064.00,1.66095,121528,42,-850.0000,54.0000,-4000.0000
1752795442.898,464.093,0.58974,1.59463,604012.00,1.65560,121685,42,-856.0000,46.0000,-3998.0000
1752795443.053,464.248,0.59096,1.59280,604138.00,1.65525,121749,42,-863.0000,30.0000,-4003.0000
1752795443.225,464.420,0.59096,1.59096,603771.00,1.65626,121934,42,-859.0000,37.0000,-3992.0000
1752795443.345,464.540,0.59035,1.59096,607443.00,1.64624,122024,42,-876.0000,28.0000,-3995.0000
1752795443.507,464.702,0.59219,1.59096,606223.00,1.64956,121863,42,-866.0000,47.0000,-3997.0000
1752795443.590,464.785,0.59158,1.59219,609168.00,1.64158,121588,42,-861.0000,35.0000,-4002.0000
1752795443.673,464.868,0.59402,1.59096,610764.00,1.63729,121654,42,-860.0000,53.0000,-4012.0000
1752795443.793,464.988,0.59341,1.59035,610900.00,1.63693,121759,42,-856.0000,39.0000,-3985.0000
1752795443.924,465.119,0.59280,1.58913,611512.00,1.63529,121792,42,-847.0000,32.0000,-4009.0000
1752795444.102,465.297,0.59463,1.58913,613488.00,1.63002,121988,42,-859.0000,40.0000,-3998.0000
1752795444.238,465.433,0.59402,1.58974,614241.00,1.62802,122116,42,-866.0000,32.0000,-4008.0000
1752795444.398,465.593,0.59402,1.58913,615233.00,1.62540,122221,42,-855.0000,51.0000,-4011.0000
1752795444.551,465.746,0.59280,1.58852,615990.00,1.62340,121938,42,-858.0000,31.0000,-4002.0000
1752795444.724,465.919,0.59585,1.58913,616605.00,1.62178,121956,42,-854.0000,24.0000,-3995.0000
1752795444.873,466.068,0.59585,1.58669,616984.00,1.62079,121906,42,-849.0000,36.0000,-4017.0000
1752795445.001,466.196,0.59585,1.58852,618361.00,1.61718,121979,42,-867.0000,38.0000,-4007.0000
1752795445.166,466.361,0.59768,1.58608,620740.00,1.61098,122163,42,-864.0000,41.0000,-4000.0000
1752795445.311,466.506,0.59829,1.58425,621124.00,1.60998,122372,42,-862.0000,32.0000,-3999.0000
1752795445.489,466.684,0.59890,1.58547,624520.00,1.60123,122499,42,-862.0000,34.0000,-3994.0000
1752795445.708,466.903,0.59951,1.58486,623281.00,1.60441,122265,42,-862.0000,26.0000,-4000.0000
1752795445.776,466.971,0.59951,1.58425,623281.00,1.60441,122216,42,-861.0000,40.0000,-4009.0000
1752795445.917,467.112,0.60012,1.58364,625294.00,1.59925,122216,42,-869.0000,45.0000,-3986.0000
1752795446.024,467.219,0.59951,1.58242,630348.00,1.58642,122297,42,-869.0000,45.0000,-3986.0000
1752795446.174,467.369,0.60195,1.58303,628323.00,1.59154,122403,42,-865.0000,40.0000,-4015.0000
1752795446.328,467.523,0.60073,1.58242,629104.00,1.58956,122465,42,-847.0000,44.0000,-3996.0000
1752795446.493,467.688,0.60134,1.58120,630903.00,1.58503,122619,42,-864.0000,32.0000,-4002.0000
1752795446.637,467.832,0.60195,1.58242,625838.00,1.59786,122266,42,-868.0000,38.0000,-3997.0000
1752795446.750,467.945,0.60379,1.57998,637023.00,1.56980,122240,42,-864.0000,53.0000,-3993.0000
1752795446.876,468.071,0.60317,1.58120,632709.00,1.57444,122212,42,-853.0000,34.0000,-4002.0000
1752795447.019,468.214,0.60440,1.57937,632709.00,1.58050,122219,42,-866.0000,41.0000,-4000.0000
1752795447.142,468.337,0.60379,1.57631,632709.00,1.58050,122312,42,-866.0000,41.0000,-4000.0000
1752795447.317,468.512,0.60440,1.57998,641305.00,1.55932,122411,42,-852.0000,41.0000,-4010.0000
1752795447.447,468.642,0.60501,1.57814,636967.00,1.56994,122590,42,-857.0000,53.0000,-4001.0000
1752795447.618,468.813,0.60623,1.57814,639021.00,1.56489,122228,42,-854.0000,49.0000,-4016.0000
1752795447.731,468.926,0.60623,1.57753,640452.00,1.56140,122319,42,-868.0000,18.0000,-3992.0000
1752795447.848,469.043,0.60684,1.57753,640854.00,1.56042,122282,42,-859.0000,44.0000,-4001.0000
1752795448.032,469.227,0.60623,1.57692,643325.00,1.55442,122341,42,-866.0000,38.0000,-4009.0000
1752795448.194,469.389,0.60745,1.57631,643325.00,1.55442,122394,42,-863.0000,39.0000,-3996.0000
1752795448.326,469.521,0.60867,1.57631,643549.00,1.55388,122408,42,-849.0000,29.0000,-4002.0000
1752795448.498,469.693,0.60806,1.57448,644360.00,1.55193,122519,42,-865.0000,49.0000,-4006.0000
1752795448.646,469.841,0.60867,1.57631,647252.00,1.54499,122534,42,-867.0000,40.0000,-4007.0000
1752795448.782,469.977,0.60989,1.57509,648070.00,1.54304,122426,42,-853.0000,43.0000,-3995.0000
1752795448.927,470.122,0.60989,1.57448,647438.00,1.54455,122287,42,-869.0000,30.0000,-3995.0000
1752795449.078,470.273,0.60928,1.57326,649525.00,1.53959,122349,42,-855.0000,31.0000,-4010.0000
1752795449.216,470.411,0.61233,1.57265,650158.00,1.53809,122273,42,-848.0000,58.0000,-4013.0000
1752795449.350,470.545,0.60989,1.57265,648480.00,1.54207,122400,42,-863.0000,34.0000,-4002.0000
1752795449.531,470.726,0.61111,1.57387,650983.00,1.53614,122443,42,-856.0000,45.0000,-4001.0000
1752795449.668,470.863,0.61111,1.57204,651396.00,1.53516,122512,42,-864.0000,40.0000,-3995.0000
1752795449.769,470.964,0.61111,1.57265,653494.00,1.53024,122568,42,-858.0000,53.0000,-3994.0000
1752795449.845,471.040,0.61111,1.57143,652444.00,1.53270,122592,42,-857.0000,36.0000,-4010.0000
1752795450.002,471.197,0.61294,1.57082,654545.00,1.52778,122327,42,-865.0000,24.0000,-4004.0000
1752795450.093,471.288,0.61233,1.57082,656851.00,1.52241,122359,42,-858.0000,37.0000,-4012.0000
1752795450.270,471.465,0.61294,1.57082,656851.00,1.52241,122328,42,-850.0000,44.0000,-4005.0000
1752795450.365,471.560,0.61294,1.57021,657908.00,1.52241,122346,42,-850.0000,44.0000,-4005.0000
1752795450.504,471.699,0.61294,1.57021,657908.00,1.51997,122437,42,-856.0000,33.0000,-3995.0000
1752795450.700,471.895,0.61355,1.56960,659808.00,1.51559,122531,42,-866.0000,24.0000,-3995.0000
1752795450.835,472.030,0.61355,1.56838,660447.00,1.51413,122644,42,-852.0000,44.0000,-3993.0000
1752795450.977,472.172,0.61477,1.56716,660447.00,1.51413,122683,42,-856.0000,42.0000,-3994.0000
1752795451.160,472.355,0.61538,1.56899,663420.00,1.50734,122416,42,-863.0000,40.0000,-3996.0000
1752795451.342,472.537,0.61477,1.56899,664271.00,1.50686,122384,42,-857.0000,26.0000,-4003.0000
1752795451.456,472.651,0.61538,1.56777,664271.00,1.50541,122373,42,-877.0000,42.0000,-4013.0000
1752795451.552,472.747,0.61600,1.56716,664271.00,1.50541,122429,42,-858.0000,32.0000,-3988.0000
1752795451.649,472.844,0.61722,1.56593,666195.00,1.50106,122503,42,-871.0000,42.0000,-4008.0000
1752795451.776,472.971,0.61722,1.56777,666195.00,1.50106,122558,42,-853.0000,41.0000,-4010.0000
1752795451.951,473.146,0.61722,1.56654,666409.00,1.50058,122651,42,-851.0000,46.0000,-4001.0000
1752795452.067,473.262,0.61722,1.56716,668126.00,1.49672,122684,42,-855.0000,40.0000,-4003.0000
1752795452.220,473.415,0.61783,1.56654,669626.00,1.49337,122566,42,-854.0000,44.0000,-4002.0000
1752795452.331,473.526,0.61844,1.56471,669626.00,1.49337,122585,42,-872.0000,44.0000,-4002.0000
1752795452.459,473.654,0.61844,1.56654,668126.00,1.49481,122560,42,-859.0000,30.0000,-3992.0000
1752795452.565,473.760,0.62027,1.56349,668126.00,1.49672,122666,42,-868.0000,42.0000,-4006.0000
1752795452.695,473.890,0.61966,1.56410,673514.00,1.48475,122734,42,-872.0000,43.0000,-4005.0000
1752795452.848,474.043,0.61905,1.56227,673303.00,1.48521,122865,42,-844.0000,29.0000,-4005.0000
1752795453.024,474.219,0.62149,1.56288,675259.00,1.48091,123017,42,-867.0000,26.0000,-3997.0000
1752795453.167,474.362,0.62027,1.56288,676992.00,1.47712,122858,42,-861.0000,43.0000,-4005.0000
1752795453.310,474.505,0.62149,1.56227,676992.00,1.47712,122911,42,-851.0000,40.0000,-3999.0000
1752795453.473,474.668,0.62210,1.56166,679169.00,1.47239,122927,42,-856.0000,34.0000,-4010.0000
1752795453.653,474.848,0.62210,1.56105,680701.00,1.46907,122988,42,-862.0000,26.0000,-4012.0000
1752795453.801,474.996,0.62393,1.56105,683127.00,1.47425,123017,42,-850.0000,30.0000,-3994.0000
1752795453.913,475.108,0.62332,1.56105,683127.00,1.46386,123068,42,-858.0000,44.0000,-4007.0000
1752795454.087,475.282,0.62088,1.56105,681380.00,1.46761,123168,42,-866.0000,34.0000,-3992.0000
1752795454.278,475.473,0.62515,1.55922,686666.00,1.45631,123057,42,-862.0000,35.0000,-4004.0000
1752795454.351,475.546,0.62393,1.55922,686013.00,1.45770,122944,42,-862.0000,35.0000,-4004.0000
1752795454.505,475.700,0.62332,1.55800,685117.00,1.45960,122911,42,-872.0000,39.0000,-3997.0000
1752795454.676,475.871,0.62393,1.55861,684911.00,1.46004,122992,42,-855.0000,23.0000,-3993.0000
1752795454.847,476.042,0.62271,1.55861,686666.00,1.45631,122996,42,-861.0000,47.0000,-4013.0000
1752795454.977,476.172,0.62393,1.55861,686218.00,1.45536,123030,42,-860.0000,37.0000,-4000.0000
1752795455.106,476.301,0.62515,1.55922,686218.00,1.45726,123063,42,-867.0000,47.0000,-3999.0000
1752795455.307,476.502,0.62454,1.55983,685117.00,1.45397,122843,42,-856.0000,40.0000,-3993.0000
1752795455.449,476.644,0.62454,1.55983,685117.00,1.45960,122766,42,-850.0000,44.0000,-4009.0000
1752795455.587,476.782,0.62393,1.56044,683572.00,1.46290,122704,42,-854.0000,43.0000,-3999.0000
1752795455.689,476.884,0.62332,1.56105,682920.00,1.46430,122699,42,-854.0000,43.0000,-3999.0000
1752795455.846,477.041,0.62088,1.56105,681380.00,1.46761,122760,42,-853.0000,41.0000,-4018.0000
1752795456.013,477.208,0.62210,1.56166,679610.00,1.47143,122832,42,-858.0000,45.0000,-4005.0000
1752795456.174,477.369,0.62088,1.56227,677431.00,1.47616,122886,42,-862.0000,37.0000,-4007.0000
1752795456.306,477.501,0.62027,1.56349,675259.00,1.48091,122704,42,-862.0000,37.0000,-4007.0000
1752795456.498,477.693,0.61905,1.56471,671788.00,1.48856,122589,42,-860.0000,40.0000,-4002.0000
1752795456.633,477.828,0.61722,1.56593,671788.00,1.48856,122533,42,-867.0000,27.0000,-4005.0000
1752795456.807,478.002,0.61538,1.56838,667910.00,1.49721,122686,42,-864.0000,25.0000,-4011.0000
1752795456.943,478.138,0.61600,1.56654,665340.00,1.50299,122744,42,-858.0000,41.0000,-4009.0000
1752795457.082,478.277,0.61355,1.56899,665340.00,1.50299,122794,42,-849.0000,36.0000,-4007.0000
1752795457.203,478.398,0.61355,1.56899,662356.00,1.50976,122830,42,-870.0000,32.0000,-3991.0000
1752795457.347,478.542,0.61294,1.57082,660447.00,1.51413,122781,42,-864.0000,38.0000,-4009.0000
1752795457.494,478.689,0.61172,1.57143,656851.00,1.52241,122689,42,-867.0000,21.0000,-3993.0000
1752795457.664,478.859,0.61050,1.57326,654961.00,1.52681,122767,42,-862.0000,36.0000,-4006.0000
1752795457.809,479.004,0.60989,1.57265,654129.00,1.52875,122726,42,-868.0000,45.0000,-4009.0000
1752795457.977,479.172,0.61050,1.57326,653934.00,1.53464,122774,42,-860.0000,32.0000,-3993.0000
1752795458.103,479.298,0.60989,1.57448,653934.00,1.52921,122808,42,-875.0000,34.0000,-3995.0000
1752795458.238,479.433,0.60806,1.57631,648480.00,1.54207,122846,42,-875.0000,34.0000,-3995.0000
1752795458.425,479.620,0.60745,1.57326,644136.00,1.55247,122948,42,-850.0000,44.0000,-4008.0000
1752795458.520,479.715,0.60684,1.57692,643325.00,1.55442,122872,42,-860.0000,39.0000,-4008.0000
1752795458.628,479.823,0.60745,1.57631,644766.00,1.55095,122881,42,-867.0000,33.0000,-3997.0000
1752795458.753,479.948,0.60623,1.57814,643325.00,1.55442,122878,42,-838.0000,44.0000,-4001.0000
1752795458.922,480.117,0.60562,1.57875,641257.00,1.55944,122898,42,-857.0000,39.0000,-4000.0000
1752795459.051,480.246,0.60562,1.57692,641080.00,1.55987,122961,42,-858.0000,37.0000,-4005.0000
1752795459.179,480.374,0.60623,1.57692,641886.00,1.56293,122995,42,-859.0000,45.0000,-4000.0000
1752795459.307,480.502,0.60501,1.57875,641886.00,1.55791,123110,42,-850.0000,34.0000,-4011.0000
1752795459.447,480.642,0.60623,1.57753,637993.00,1.56741,123142,42,-845.0000,32.0000,-4005.0000
1752795459.642,480.837,0.60440,1.57753,640050.00,1.56741,123158,42,-850.0000,29.0000,-4024.0000
1752795459.776,480.971,0.60501,1.57814,640050.00,1.56238,123057,42,-851.0000,36.0000,-4013.0000
1752795459.914,481.109,0.60379,1.57937,638620.00,1.56587,123085,42,-864.0000,32.0000,-3999.0000
1752795460.101,481.296,0.60501,1.57875,637594.00,1.56840,123061,42,-860.0000,27.0000,-4005.0000
1752795460.226,481.421,0.60440,1.57998,636967.00,1.56994,123125,42,-857.0000,25.0000,-4017.0000
1752795460.340,481.535,0.60440,1.57875,637194.00,1.56938,123159,42,-869.0000,36.0000,-4017.0000
1752795460.471,481.666,0.60501,1.57998,640050.00,1.56238,123203,42,-859.0000,35.0000,-4005.0000
1752795460.619,481.814,0.60379,1.57814,637594.00,1.56840,123233,42,-857.0000,30.0000,-4009.0000
1752795460.785,481.980,0.60501,1.57875,637993.00,1.56741,123274,42,-866.0000,39.0000,-4004.0000
1752795460.936,482.131,0.60440,1.57875,638620.00,1.56587,123108,42,-857.0000,46.0000,-4012.0000
1752795461.094,482.289,0.60440,1.57875,635942.00,1.57247,123116,42,-851.0000,36.0000,-4010.0000
1752795461.239,482.434,0.60379,1.57875,636170.00,1.57191,123159,42,-843.0000,37.0000,-4003.0000
1752795461.366,482.561,0.60440,1.57937,637194.00,1.56938,123145,42,-857.0000,42.0000,-4007.0000
1752795461.509,482.704,0.60501,1.57875,637366.00,1.56896,123224,42,-851.0000,28.0000,-4005.0000
1752795461.630,482.825,0.60501,1.57875,635544.00,1.57345,123249,42,-866.0000,36.0000,-4014.0000
1752795461.783,482.978,0.60440,1.57814,639021.00,1.56489,123329,42,-859.0000,33.0000,-4010.0000
1752795461.897,483.092,0.60440,1.57814,638620.00,1.56587,123204,42,-855.0000,35.0000,-3994.0000
1752795462.019,483.214,0.60501,1.57937,638394.00,1.56643,123154,42,-862.0000,46.0000,-3996.0000
1752795462.137,483.332,0.60501,1.57937,636967.00,1.56994,123171,42,-856.0000,40.0000,-3998.0000
1752795462.292,483.487,0.60501,1.57875,638620.00,1.56587,123232,42,-852.0000,42.0000,-3998.0000
1752795462.470,483.665,0.60440,1.57937,637993.00,1.56741,123273,42,-853.0000,24.0000,-4004.0000
1752795462.664,483.859,0.60501,1.57875,640050.00,1.57092,123303,42,-851.0000,40.0000,-4000.0000
1752795462.785,483.980,0.60440,1.57814,640050.00,1.56238,123358,42,-857.0000,48.0000,-4008.0000
1752795463.003,484.198,0.60440,1.57814,640050.00,1.56238,123453,42,-859.0000,35.0000,-4008.0000
1752795463.088,484.283,0.60501,1.57814,640050.00,1.56238,123453,42,-860.0000,31.0000,-3995.0000
1752795463.228,484.423,0.60501,1.57875,636568.00,1.56489,123296,42,-853.0000,42.0000,-3999.0000
1752795463.351,484.546,0.60562,1.57753,640452.00,1.57092,123328,42,-860.0000,47.0000,-4004.0000
1752795463.509,484.704,0.60562,1.57753,640452.00,1.56140,123332,42,-859.0000,50.0000,-3999.0000
1752795463.646,484.841,0.60501,1.57875,640452.00,1.56140,123405,42,-839.0000,39.0000,-4008.0000
1752795463.737,484.932,0.60562,1.57753,644584.00,1.55139,123456,42,-857.0000,45.0000,-4013.0000
1752795463.879,485.074,0.60684,1.57814,640452.00,1.56140,123480,42,-862.0000,35.0000,-4007.0000
1752795464.017,485.212,0.60684,1.57570,639824.00,1.56293,123566,42,-865.0000,34.0000,-4006.0000
1752795464.195,485.390,0.60745,1.57753,641257.00,1.55944,123382,42,-861.0000,20.0000,-3993.0000
1752795464.371,485.566,0.60562,1.57753,639824.00,1.55845,123345,42,-852.0000,46.0000,-4035.0000
1752795464.514,485.709,0.60684,1.57692,639824.00,1.56293,123420,42,-866.0000,46.0000,-4013.0000
1752795464.695,485.890,0.60623,1.57692,642920.00,1.56391,123429,42,-857.0000,52.0000,-4001.0000
1752795464.802,485.997,0.60806,1.57753,642515.00,1.55540,123459,42,-870.0000,35.0000,-3993.0000
1752795464.912,486.107,0.60745,1.57692,642515.00,1.55638,123474,42,-868.0000,40.0000,-4000.0000
1752795465.036,486.231,0.60806,1.57753,641257.00,1.55944,123530,42,-849.0000,34.0000,-4003.0000
1752795465.189,486.384,0.60745,1.57753,643730.00,1.55345,123594,42,-860.0000,53.0000,-3991.0000
1752795465.309,486.504,0.60806,1.57631,641661.00,1.55845,123425,42,-862.0000,34.0000,-4001.0000
1752795465.494,486.689,0.60745,1.57692,647252.00,1.54499,123388,42,-858.0000,50.0000,-4004.0000
1752795465.656,486.851,0.60745,1.57692,643730.00,1.55345,123399,42,-844.0000,47.0000,-4007.0000
1752795465.808,487.003,0.60867,1.57631,643730.00,1.55345,123390,42,-850.0000,44.0000,-3996.0000
1752795465.969,487.164,0.60806,1.57570,645804.00,1.54846,123431,42,-861.0000,37.0000,-4000.0000
1752795466.127,487.322,0.60806,1.57509,647252.00,1.54499,123449,42,-842.0000,25.0000,-4000.0000
1752795466.262,487.457,0.60806,1.57570,643325.00,1.55442,123492,42,-861.0000,26.0000,-4009.0000
1752795466.386,487.581,0.60745,1.57509,648480.00,1.54207,123521,42,-856.0000,49.0000,-4015.0000
1752795466.540,487.735,0.60806,1.57570,646620.00,1.54650,123567,42,-851.0000,45.0000,-4009.0000
1752795466.708,487.903,0.60867,1.57509,647252.00,1.54499,123400,42,-864.0000,40.0000,-3993.0000
1752795466.857,488.052,0.60928,1.57448,642515.00,1.55638,123376,42,-863.0000,47.0000,-3992.0000
1752795467.004,488.199,0.60806,1.57570,644766.00,1.55095,123343,42,-859.0000,56.0000,-4001.0000
1752795467.166,488.361,0.60928,1.57326,646212.00,1.54748,123331,42,-857.0000,34.0000,-4003.0000
1752795467.343,488.538,0.60928,1.57448,647252.00,1.54499,123411,42,-868.0000,29.0000,-4010.0000
1752795467.481,488.676,0.60928,1.57509,647252.00,1.54499,123485,42,-860.0000,32.0000,-4010.0000
1752795467.620,488.815,0.60989,1.57204,646620.00,1.54650,123547,42,-858.0000,44.0000,-4002.0000
1752795467.752,488.947,0.60989,1.57448,650570.00,1.53711,123349,42,-846.0000,40.0000,-4018.0000
1752795467.897,489.092,0.61050,1.57326,650570.00,1.53711,123331,42,-854.0000,52.0000,-4014.0000
1752795468.126,489.321,0.61050,1.57204,649114.00,1.53809,123324,42,-851.0000,35.0000,-4003.0000
1752795468.241,489.436,0.60989,1.57326,649114.00,1.54056,123314,42,-861.0000,40.0000,-4003.0000
1752795468.332,489.527,0.61050,1.57326,649936.00,1.53861,123375,42,-865.0000,29.0000,-4005.0000
1752795468.456,489.651,0.61111,1.57326,650570.00,1.53711,123436,42,-855.0000,28.0000,-3987.0000
1752795468.614,489.809,0.61050,1.57204,654545.00,1.52778,123472,42,-864.0000,39.0000,-4005.0000
1752795468.758,489.953,0.61111,1.57326,654129.00,1.52778,123530,42,-849.0000,49.0000,-3999.0000
1752795468.904,490.099,0.61050,1.57326,653909.00,1.52875,123281,42,-850.0000,29.0000,-4000.0000
1752795469.046,490.241,0.61172,1.56899,653909.00,1.52926,123218,42,-850.0000,51.0000,-4013.0000
1752795469.183,490.378,0.61111,1.57265,656433.00,1.52338,123249,42,-854.0000,38.0000,-3998.0000
1752795469.333,490.528,0.61172,1.57143,655378.00,1.52584,123252,42,-867.0000,38.0000,-3990.0000
1752795469.469,490.664,0.61172,1.57143,656433.00,1.52338,123278,42,-861.0000,31.0000,-4007.0000
1752795469.590,490.785,0.61233,1.57448,653909.00,1.52926,123288,42,-848.0000,38.0000,-3999.0000
1752795469.766,490.961,0.61172,1.56777,657270.00,1.52144,123336,42,-858.0000,37.0000,-4001.0000
1752795469.894,491.089,0.61355,1.57082,657488.00,1.52094,123408,42,-870.0000,27.0000,-4004.0000
1752795470.021,491.216,0.61294,1.57387,657270.00,1.52144,123386,42,-856.0000,41.0000,-4008.0000
1752795470.154,491.349,0.61233,1.57143,660025.00,1.51509,123085,42,-878.0000,30.0000,-3991.0000
1752795470.282,491.477,0.61233,1.56960,658966.00,1.51753,123089,42,-854.0000,40.0000,-3995.0000
1752795470.393,491.588,0.61355,1.56960,659386.00,1.51850,123052,42,-860.0000,34.0000,-4009.0000
1752795470.531,491.726,0.61416,1.57082,657689.00,1.51656,123063,42,-865.0000,43.0000,-4003.0000
1752795470.651,491.846,0.61355,1.56838,660869.00,1.52047,123088,42,-862.0000,37.0000,-3995.0000
1752795470.767,491.962,0.61477,1.56960,660869.00,1.51316,123128,42,-849.0000,32.0000,-4000.0000
1752795470.898,492.093,0.61355,1.56960,659386.00,1.51656,123173,42,-869.0000,45.0000,-3983.0000
1752795471.060,492.255,0.61477,1.56899,659386.00,1.51656,123183,42,-868.0000,32.0000,-3999.0000
1752795471.250,492.445,0.61477,1.57021,660652.00,1.51413,122832,42,-853.0000,28.0000,-4008.0000
1752795471.388,492.583,0.61416,1.56838,660652.00,1.51365,122796,42,-852.0000,37.0000,-4007.0000
1752795471.524,492.719,0.61477,1.56654,661292.00,1.51219,122735,42,-851.0000,39.0000,-3998.0000
1752795471.691,492.886,0.61661,1.56593,667910.00,1.50251,122754,42,-857.0000,33.0000,-3994.0000
1752795471.819,493.014,0.61294,1.57082,667910.00,1.49721,122772,42,-853.0000,31.0000,-4007.0000
1752795472.002,493.197,0.61355,1.57021,657689.00,1.52241,122791,42,-853.0000,36.0000,-4001.0000
1752795472.123,493.318,0.61355,1.57082,657689.00,1.52047,122831,42,-854.0000,46.0000,-4010.0000
1752795472.302,493.497,0.61294,1.56899,659808.00,1.51559,122527,42,-843.0000,42.0000,-4012.0000
1752795472.460,493.655,0.61477,1.57082,653664.00,1.52984,122459,42,-863.0000,31.0000,-4002.0000
1752795472.620,493.815,0.61477,1.57082,657908.00,1.51997,122386,42,-839.0000,26.0000,-4005.0000
1752795472.770,493.965,0.61355,1.57021,660025.00,1.51509,122410,42,-864.0000,34.0000,-4015.0000
1752795472.912,494.107,0.61355,1.56899,659386.00,1.51656,122442,42,-863.0000,41.0000,-4012.0000
1752795473.069,494.264,0.61355,1.56960,659808.00,1.51559,122478,42,-852.0000,47.0000,-4007.0000
1752795473.137,494.332,0.61477,1.56777,659808.00,1.51559,122501,42,-849.0000,40.0000,-4013.0000
1752795473.264,494.459,0.61477,1.56899,663420.00,1.50734,122448,42,-855.0000,28.0000,-4002.0000
1752795473.400,494.595,0.61538,1.56838,661292.00,1.51219,122117,42,-842.0000,47.0000,-4013.0000
1752795473.543,494.738,0.61538,1.56838,662780.00,1.50880,122100,42,-848.0000,33.0000,-4000.0000
1752795473.684,494.879,0.61661,1.56716,661292.00,1.51219,122070,42,-859.0000,31.0000,-4013.0000
1752795473.810,495.005,0.61661,1.56777,665767.00,1.50203,122108,42,-856.0000,23.0000,-3998.0000
1752795473.941,495.136,0.61538,1.56838,664698.00,1.50444,122129,42,-846.0000,32.0000,-3993.0000
1752795474.104,495.299,0.61661,1.56654,666409.00,1.50058,122354,42,-857.0000,31.0000,-4002.0000
1752795474.267,495.462,0.61722,1.56654,666409.00,1.49865,122057,42,-850.0000,35.0000,-3994.0000
1752795474.417,495.612,0.61844,1.56532,666409.00,1.50058,121914,42,-860.0000,37.0000,-4000.0000
1752795474.556,495.751,0.61722,1.56654,667480.00,1.49817,121829,42,-841.0000,38.0000,-4007.0000
1752795474.682,495.877,0.61661,1.56532,667266.00,1.49865,121808,42,-845.0000,28.0000,-4008.0000
1752795474.834,496.029,0.61844,1.56532,668983.00,1.49481,121847,42,-864.0000,39.0000,-3999.0000
1752795475.012,496.207,0.61783,1.56654,668339.00,1.49624,121892,42,-862.0000,40.0000,-4003.0000
1752795475.184,496.379,0.61844,1.56654,670489.00,1.49913,121972,42,-843.0000,42.0000,-4022.0000
1752795475.315,496.510,0.61844,1.56593,670489.00,1.49145,122060,42,-843.0000,34.0000,-4020.0000
1752795475.390,496.585,0.61783,1.56532,672868.00,1.48617,121948,42,-843.0000,34.0000,-4020.0000
1752795475.595,496.790,0.61844,1.56471,665337.00,1.49288,121660,42,-854.0000,39.0000,-4034.0000
1752795475.732,496.927,0.61844,1.56532,665337.00,1.50300,121637,42,-858.0000,42.0000,-4006.0000
1752795475.897,497.092,0.61844,1.56593,672868.00,1.48617,121621,42,-853.0000,42.0000,-4009.0000
1752795476.100,497.295,0.61966,1.56593,672222.00,1.48760,121681,42,-851.0000,38.0000,-3992.0000
1752795476.218,497.413,0.61905,1.56410,673303.00,1.48521,121726,42,-852.0000,36.0000,-4005.0000
1752795476.334,497.529,0.61966,1.56349,672868.00,1.48617,121836,42,-856.0000,29.0000,-4013.0000
1752795476.496,497.691,0.62027,1.56349,674385.00,1.48283,121928,42,-851.0000,41.0000,-4001.0000
1752795476.638,497.833,0.61966,1.56349,670922.00,1.49049,122044,42,-854.0000,35.0000,-4013.0000
1752795476.822,498.017,0.62088,1.56349,674174.00,1.48329,121881,42,-853.0000,37.0000,-4005.0000
1752795476.972,498.167,0.62027,1.56349,676344.00,1.47854,121772,42,-858.0000,19.0000,-3999.0000
1752795477.105,498.300,0.62027,1.56166,674822.00,1.48187,121762,42,-863.0000,49.0000,-4012.0000
1752795477.248,498.443,0.62088,1.56166,678080.00,1.47475,121848,42,-852.0000,46.0000,-4014.0000
1752795477.334,498.529,0.62271,1.56288,677662.00,1.47379,121954,42,-845.0000,36.0000,-4002.0000
1752795477.445,498.640,0.62454,1.56227,677662.00,1.47566,122120,42,-854.0000,41.0000,-4003.0000
1752795477.514,498.709,0.62088,1.56166,680078.00,1.47042,122204,42,-854.0000,41.0000,-4003.0000
1752795477.679,498.874,0.62271,1.56227,678752.00,1.47379,121894,42,-863.0000,41.0000,-4003.0000
1752795477.775,498.970,0.62271,1.56166,678752.00,1.47329,121921,42,-863.0000,41.0000,-4003.0000
1752795477.918,499.113,0.62271,1.56227,679844.00,1.47093,121921,42,-857.0000,35.0000,-3998.0000
1752795478.066,499.261,0.62393,1.56105,681380.00,1.46761,122008,42,-847.0000,42.0000,-4002.0000
1752795478.180,499.375,0.62332,1.55922,681824.00,1.46665,122158,42,-847.0000,42.0000,-4002.0000
1752795478.319,499.514,0.62149,1.56044,684670.00,1.46056,122215,42,-856.0000,47.0000,-4012.0000
1752795478.501,499.696,0.62210,1.56044,682031.00,1.46812,122302,42,-858.0000,39.0000,-4007.0000
1752795478.639,499.834,0.62454,1.55922,682031.00,1.46621,121848,42,-851.0000,28.0000,-3993.0000
1752795478.771,499.966,0.62210,1.55861,685117.00,1.45960,121820,42,-863.0000,41.0000,-3992.0000
1752795478.971,500.166,0.62454,1.55922,685770.00,1.45821,121759,42,-860.0000,44.0000,-4011.0000
1752795479.114,500.309,0.62271,1.55983,684258.00,1.45821,121791,42,-856.0000,31.0000,-4002.0000
1752795479.237,500.432,0.62454,1.55983,684258.00,1.46144,121801,42,-863.0000,54.0000,-4007.0000
1752795479.403,500.598,0.62454,1.55983,686013.00,1.45536,121842,42,-865.0000,38.0000,-4004.0000
1752795479.575,500.770,0.62454,1.55922,687115.00,1.45770,121891,42,-862.0000,36.0000,-3989.0000
1752795479.707,500.902,0.62576,1.55983,685117.00,1.45536,121619,42,-856.0000,52.0000,-4010.0000
1752795479.852,501.047,0.62515,1.55861,685117.00,1.45960,121422,42,-857.0000,40.0000,-4016.0000
1752795480.003,501.198,0.62576,1.55861,687320.00,1.45493,121411,42,-857.0000,27.0000,-3984.0000
1752795480.153,501.348,0.62515,1.55739,690885.00,1.45164,121446,42,-857.0000,35.0000,-4014.0000
1752795480.289,501.484,0.62576,1.55800,690885.00,1.44742,121531,42,-853.0000,46.0000,-3998.0000
1752795480.427,501.622,0.62637,1.55678,688670.00,1.45207,121626,42,-857.0000,44.0000,-4004.0000
1752795480.558,501.753,0.62637,1.55800,691338.00,1.44647,121913,42,-856.0000,40.0000,-3995.0000
1752795480.683,501.878,0.62515,1.55800,689121.00,1.45112,121947,42,-854.0000,40.0000,-3996.0000
1752795480.838,502.033,0.62698,1.55739,688219.00,1.45302,121631,42,-866.0000,31.0000,-4009.0000
1752795481.016,502.211,0.62576,1.55739,688874.00,1.45164,121494,42,-849.0000,44.0000,-4000.0000
1752795481.156,502.351,0.62454,1.55800,690026.00,1.44922,121467,42,-864.0000,32.0000,-4006.0000
1752795481.314,502.509,0.62698,1.55678,687769.00,1.45397,121906,42,-846.0000,53.0000,-4010.0000
1752795481.485,502.680,0.62698,1.55617,694272.00,1.44036,121602,42,-858.0000,38.0000,-4018.0000
1752795481.658,502.853,0.62882,1.55617,694272.00,1.44689,121679,42,-858.0000,36.0000,-4008.0000
1752795481.815,503.010,0.62821,1.55617,694272.00,1.44036,121750,42,-856.0000,43.0000,-4000.0000
1752795481.995,503.190,0.62759,1.55556,694473.00,1.44089,121808,42,-849.0000,41.0000,-4006.0000
1752795482.106,503.301,0.62759,1.55617,694473.00,1.43994,121487,42,-858.0000,39.0000,-4003.0000
1752795482.198,503.393,0.62821,1.55556,694473.00,1.43994,121420,42,-843.0000,38.0000,-4006.0000
1752795482.320,503.515,0.62821,1.55556,694930.00,1.43899,121406,42,-843.0000,38.0000,-4006.0000
1752795482.472,503.667,0.62759,1.55617,694930.00,1.43899,121448,42,-857.0000,36.0000,-4001.0000
1752795482.616,503.811,0.62821,1.55495,693359.00,1.44225,121505,42,-867.0000,37.0000,-3999.0000
1752795482.744,503.939,0.62821,1.55433,696047.00,1.43668,121611,42,-852.0000,39.0000,-4001.0000
1752795482.862,504.057,0.62759,1.55556,697165.00,1.43438,121352,42,-852.0000,50.0000,-4005.0000
1752795483.006,504.201,0.62882,1.55678,694473.00,1.43994,121211,42,-853.0000,16.0000,-4005.0000
1752795483.114,504.309,0.62943,1.55433,695388.00,1.43804,121187,42,-848.0000,43.0000,-3998.0000
1752795483.237,504.432,0.63187,1.55495,698085.00,1.44542,121213,42,-854.0000,33.0000,-3999.0000
1752795483.339,504.534,0.62821,1.55495,698085.00,1.43249,121248,42,-843.0000,32.0000,-3989.0000
1752795483.484,504.679,0.62943,1.55311,697625.00,1.43343,121357,42,-864.0000,33.0000,-3989.0000
1752795483.639,504.834,0.63004,1.55739,702384.00,1.42372,121422,42,-854.0000,37.0000,-3999.0000
1752795483.777,504.972,0.63126,1.55372,698745.00,1.43114,121501,42,-857.0000,35.0000,-4025.0000
1752795483.946,505.141,0.62943,1.55311,700595.00,1.42736,121225,42,-865.0000,39.0000,-4018.0000
1752795484.077,505.272,0.62943,1.55189,700330.00,1.42790,121114,42,-858.0000,30.0000,-4011.0000
1752795484.198,505.393,0.63065,1.55372,702581.00,1.42332,121022,42,-853.0000,30.0000,-3991.0000
1752795484.327,505.522,0.63126,1.55311,700132.00,1.42830,121535,42,-850.0000,41.0000,-4012.0000
1752795484.453,505.648,0.63065,1.55189,705577.00,1.41728,121230,42,-854.0000,27.0000,-3993.0000
1752795484.585,505.780,0.63004,1.55006,703512.00,1.42144,121333,42,-852.0000,32.0000,-4019.0000
1752795484.741,505.936,0.63126,1.55250,706436.00,1.41556,121404,42,-863.0000,28.0000,-4002.0000
1752795484.844,506.039,0.63431,1.55067,705577.00,1.41728,121573,42,-865.0000,37.0000,-4019.0000
1752795484.969,506.164,0.63370,1.55006,709260.00,1.41124,121225,42,-844.0000,42.0000,-4019.0000
1752795485.074,506.269,0.63309,1.54945,709260.00,1.40992,121064,42,-849.0000,32.0000,-4006.0000
1752795485.175,506.370,0.63370,1.54701,709926.00,1.40860,121133,42,-852.0000,33.0000,-4009.0000
1752795485.328,506.523,0.63431,1.55006,709733.00,1.40898,121212,42,-855.0000,31.0000,-4008.0000
1752795485.484,506.679,0.63370,1.54945,710400.00,1.40860,121307,42,-849.0000,39.0000,-4006.0000
1752795485.691,506.886,0.63370,1.54823,710400.00,1.40446,121459,42,-854.0000,45.0000,-4001.0000
1752795485.806,507.001,0.63553,1.55006,712016.00,1.40446,121531,42,-849.0000,36.0000,-4021.0000
1752795485.960,507.155,0.63492,1.54884,708788.00,1.41086,121711,42,-842.0000,29.0000,-4008.0000
1752795486.067,507.262,0.63492,1.54884,713351.00,1.40183,121447,42,-842.0000,29.0000,-4008.0000
1752795486.235,507.430,0.63492,1.54762,712491.00,1.40352,121401,42,-859.0000,34.0000,-4023.0000
1752795486.358,507.553,0.63431,1.55128,714782.00,1.39903,121420,42,-854.0000,43.0000,-4010.0000
1752795486.479,507.674,0.63431,1.54945,707456.00,1.41351,121510,42,-854.0000,43.0000,-4010.0000
1752795486.632,507.827,0.63553,1.54518,710874.00,1.40672,121642,42,-852.0000,28.0000,-4009.0000
1752795486.740,507.935,0.63431,1.54823,712491.00,1.40352,121719,42,-859.0000,21.0000,-4002.0000
1752795486.904,508.099,0.63431,1.54884,713159.00,1.40221,121844,42,-848.0000,37.0000,-4006.0000
1752795487.077,508.272,0.63614,1.54823,714591.00,1.39940,121793,42,-854.0000,34.0000,-3996.0000
1752795487.172,508.367,0.63614,1.54762,714591.00,1.39940,121621,42,-868.0000,50.0000,-4006.0000
1752795487.319,508.514,0.63675,1.54457,721990.00,1.39716,121514,42,-862.0000,37.0000,-3992.0000
1752795487.453,508.648,0.63492,1.54823,714591.00,1.38506,121507,42,-850.0000,36.0000,-3989.0000
1752795487.585,508.780,0.63492,1.54701,714591.00,1.39940,121582,42,-854.0000,40.0000,-4001.0000
1752795487.728,508.923,0.63492,1.54945,715740.00,1.39716,121660,42,-850.0000,45.0000,-4001.0000
1752795487.847,509.042,0.63492,1.54823,711348.00,1.40578,121726,42,-853.0000,41.0000,-4008.0000
1752795487.989,509.184,0.63431,1.54884,713636.00,1.40127,121841,42,-849.0000,46.0000,-4018.0000
1752795488.129,509.324,0.63614,1.54945,712875.00,1.40277,121954,42,-857.0000,39.0000,-3994.0000
1752795488.271,509.466,0.63431,1.54945,712299.00,1.40390,121549,42,-857.0000,26.0000,-4007.0000
1752795488.386,509.581,0.63614,1.54762,710874.00,1.40672,121477,42,-872.0000,34.0000,-4010.0000
1752795488.494,509.689,0.63553,1.55189,713636.00,1.40127,121559,42,-842.0000,41.0000,-4002.0000
1752795488.617,509.812,0.63492,1.54823,711348.00,1.40578,121638,42,-858.0000,42.0000,-4002.0000
1752795488.722,509.917,0.63431,1.54823,713636.00,1.40127,121710,42,-864.0000,37.0000,-4008.0000
1752795488.900,510.095,0.63370,1.55067,710400.00,1.40766,121763,42,-849.0000,32.0000,-3999.0000
1752795489.035,510.230,0.63370,1.54945,709733.00,1.40898,121888,42,-844.0000,34.0000,-3999.0000
1752795489.201,510.396,0.63309,1.55067,710400.00,1.40766,121578,42,-853.0000,39.0000,-4009.0000
1752795489.329,510.524,0.63431,1.54884,713159.00,1.40221,121547,42,-867.0000,37.0000,-4001.0000
1752795489.446,510.641,0.63553,1.54884,713636.00,1.40446,121561,42,-846.0000,44.0000,-3997.0000
1752795489.545,510.740,0.63675,1.54945,713636.00,1.40127,121610,42,-853.0000,32.0000,-4007.0000
1752795489.738,510.933,0.63492,1.54823,712016.00,1.40446,121668,42,-856.0000,32.0000,-4004.0000
1752795489.814,511.009,0.63492,1.54884,714304.00,1.39996,121752,42,-856.0000,32.0000,-4004.0000
1752795489.954,511.149,0.63370,1.54823,712491.00,1.40352,121851,42,-856.0000,34.0000,-4004.0000
1752795490.125,511.320,0.63553,1.54701,714304.00,1.40034,121593,42,-867.0000,32.0000,-4002.0000
1752795490.242,511.437,0.63492,1.54823,714113.00,1.40034,121546,42,-852.0000,42.0000,-3999.0000
1752795490.376,511.571,0.63492,1.55189,716219.00,1.39622,121584,42,-854.0000,36.0000,-4006.0000
1752795490.557,511.752,0.63492,1.54762,706791.00,1.41485,121640,42,-851.0000,18.0000,-3994.0000
1752795490.724,511.919,0.63736,1.54701,716219.00,1.39996,121734,42,-856.0000,33.0000,-4004.0000
1752795490.851,512.046,0.63675,1.54640,717371.00,1.39622,121786,42,-859.0000,33.0000,-3989.0000
1752795490.993,512.188,0.63553,1.54701,717371.00,1.39398,121598,42,-849.0000,39.0000,-4006.0000
1752795491.131,512.326,0.63553,1.54701,715930.00,1.39678,121655,42,-858.0000,37.0000,-4005.0000
1752795491.263,512.458,0.63858,1.54640,716890.00,1.39491,121632,42,-860.0000,34.0000,-3999.0000
1752795491.411,512.606,0.63797,1.54579,720833.00,1.38728,121768,42,-856.0000,42.0000,-4005.0000
1752795491.535,512.730,0.63980,1.54579,720645.00,1.38764,121839,42,-860.0000,43.0000,-4007.0000
1752795491.705,512.900,0.63736,1.54640,722963.00,1.38320,121884,42,-850.0000,34.0000,-4005.0000
1752795491.861,513.056,0.63858,1.54701,723450.00,1.38227,121738,42,-842.0000,20.0000,-3994.0000
1752795492.006,513.201,0.63980,1.54457,725776.00,1.37784,121744,42,-845.0000,39.0000,-4018.0000
1752795492.134,513.329,0.64103,1.54029,728232.00,1.37319,121888,42,-847.0000,46.0000,-4013.0000
1752795492.312,513.507,0.64042,1.54274,733604.00,1.36313,121968,42,-837.0000,36.0000,-3987.0000
1752795492.505,513.700,0.64225,1.54335,730081.00,1.36844,121701,42,-855.0000,34.0000,-3998.0000
1752795492.627,513.822,0.64164,1.54212,730081.00,1.36971,121688,42,-857.0000,35.0000,-3998.0000
1752795492.795,513.990,0.63980,1.54151,730576.00,1.36878,121730,42,-841.0000,34.0000,-4014.0000
1752795492.950,514.145,0.64164,1.54274,730264.00,1.36937,121800,42,-856.0000,35.0000,-4009.0000
1752795493.083,514.278,0.64225,1.54090,731568.00,1.36693,122012,42,-861.0000,44.0000,-4011.0000
1752795493.201,514.396,0.64347,1.54029,733423.00,1.36347,121872,42,-853.0000,14.0000,-4006.0000
1752795493.352,514.547,0.64225,1.54029,731436.00,1.36717,121690,42,-850.0000,34.0000,-4002.0000
1752795493.531,514.726,0.64347,1.54151,734602.00,1.36128,121692,42,-860.0000,29.0000,-3994.0000
1752795493.649,514.844,0.64347,1.54029,735782.00,1.35910,121757,42,-860.0000,29.0000,-3994.0000
1752795493.820,515.015,0.64347,1.53846,735602.00,1.35943,121836,42,-855.0000,45.0000,-4011.0000
1752795493.967,515.162,0.64347,1.54029,734921.00,1.36069,121900,42,-845.0000,32.0000,-4014.0000
1752795494.124,515.319,0.64469,1.54029,735602.00,1.35943,122021,42,-845.0000,46.0000,-4021.0000
1752795494.259,515.454,0.64286,1.54029,736425.00,1.35791,122111,42,-857.0000,41.0000,-4008.0000
1752795494.396,515.591,0.64408,1.53907,739658.00,1.35197,122004,42,-857.0000,29.0000,-4003.0000
1752795494.542,515.737,0.64530,1.54274,736784.00,1.35725,121817,42,-859.0000,35.0000,-4001.0000
1752795494.709,515.904,0.64347,1.53968,737466.00,1.35599,121816,42,-849.0000,35.0000,-4012.0000
1752795494.850,516.045,0.64103,1.53968,737466.00,1.35599,121836,42,-856.0000,44.0000,-4010.0000
1752795495.006,516.201,0.64469,1.54090,740846.00,1.34981,121895,42,-848.0000,31.0000,-4012.0000
1752795495.123,516.318,0.64408,1.53907,737466.00,1.35599,121980,42,-855.0000,38.0000,-4014.0000
1752795495.268,516.463,0.64530,1.53968,740846.00,1.34981,122087,42,-853.0000,41.0000,-4007.0000
